,Time Stamp,Acc_x,Acc_y,Acc_z,Gyro_x,Gyro_y,Gyro_z, Patient ID,Unnamed: 0,Patient ID,Unnamed: 0.1,Acc_x ,Time Stamp 
0,0.0,0.0,0.0,0.0,0.0,0.0,0.0, R408,,,,,
1,9.765625,0.000401,0.029091,0.025044,-6.2e-05,-0.000125,-0.000277,,,,,,
2,19.53125,0.000801,0.058182,0.050088,-0.000125,-0.00025,-0.000553,,,,,,
3,29.296875,0.001202,0.087273,0.075132,-0.000187,-0.000375,-0.00083,,,,,,
4,39.0625,0.001603,0.116364,0.100176,-0.00025,-0.0005,-0.001106,,,,,,
5,48.828125,0.002004,0.145455,0.12522,-0.000312,-0.000624,-0.001383,,,,,,
6,58.59375,0.002404,0.174546,0.150264,-0.000375,-0.000749,-0.001659,,,,,,
7,68.359375,0.002805,0.203637,0.175308,-0.000437,-0.000874,-0.001936,,,,,,
8,78.125,0.003206,0.232728,0.200352,-0.0005,-0.000999,-0.002212,,,,,,
9,87.890625,0.003606,0.261819,0.225396,-0.000562,-0.001124,-0.002489,,,,,,
10,97.65625,0.004007,0.290911,0.250439,-0.000624,-0.001249,-0.002765,,,,,,
11,107.421875,0.004408,0.320002,0.275483,-0.000687,-0.001374,-0.003042,,,,,,
12,117.1875,0.004808,0.349093,0.300527,-0.000749,-0.001499,-0.003318,,,,,,
13,126.953125,0.005209,0.378184,0.325571,-0.000812,-0.001623,-0.003595,,,,,,
14,136.71875,0.00561,0.407275,0.350615,-0.000874,-0.001748,-0.003871,,,,,,
15,146.484375,0.006011,0.436366,0.375659,-0.000937,-0.001873,-0.004148,,,,,,
16,156.25,0.006411,0.465457,0.400703,-0.000999,-0.001998,-0.004424,,,,,,
17,166.015625,0.006812,0.494548,0.425747,-0.001061,-0.002123,-0.004701,,,,,,
18,175.78125,0.007213,0.523639,0.450791,-0.001124,-0.002248,-0.004977,,,,,,
19,185.546875,0.007613,0.55273,0.475835,-0.001186,-0.002373,-0.005254,,,,,,
20,195.3125,0.008014,0.581821,0.500879,-0.001249,-0.002498,-0.00553,,,,,,
21,205.078125,0.008415,0.610912,0.525923,-0.001311,-0.002622,-0.005807,,,,,,
22,214.84375,0.008815,0.640003,0.550967,-0.001374,-0.002747,-0.006083,,,,,,
23,224.609375,0.009216,0.669094,0.576011,-0.001436,-0.002872,-0.00636,,,,,,
24,234.375,0.009617,0.698185,0.601055,-0.001499,-0.002997,-0.006636,,,,,,
25,244.140625,0.010018,0.727276,0.626099,-0.001561,-0.003122,-0.006913,,,,,,
26,253.90625,0.010418,0.756367,0.651143,-0.001623,-0.003247,-0.007189,,,,,,
27,263.671875,0.010819,0.785458,0.676187,-0.001686,-0.003372,-0.007466,,,,,,
28,273.4375,0.01122,0.81455,0.701231,-0.001748,-0.003497,-0.007742,,,,,,
29,283.203125,0.01162,0.843641,0.726275,-0.001811,-0.003621,-0.008019,,,,,,
30,292.96875,0.012021,0.872732,0.751319,-0.001873,-0.003746,-0.008295,,,,,,
31,302.734375,0.012422,0.901823,0.776362,-0.001936,-0.003871,-0.008572,,,,,,
32,312.5,0.012823,0.930914,0.801406,-0.001998,-0.003996,-0.008848,,,,,,
33,322.265625,0.013223,0.960005,0.82645,-0.00206,-0.004121,-0.009125,,,,,,
34,332.03125,0.013624,0.989096,0.851494,-0.002123,-0.004246,-0.009401,,,,,,
35,341.796875,0.014025,1.018187,0.876538,-0.002185,-0.004371,-0.009678,,,,,,
36,351.5625,0.014425,1.047278,0.901582,-0.002248,-0.004496,-0.009954,,,,,,
37,361.328125,0.014826,1.076369,0.926626,-0.00231,-0.00462,-0.010231,,,,,,
38,371.09375,0.015227,1.10546,0.95167,-0.002373,-0.004745,-0.010507,,,,,,
39,380.859375,0.015627,1.134551,0.976714,-0.002435,-0.00487,-0.010784,,,,,,
40,390.625,0.016028,1.163642,1.001758,-0.002498,-0.004995,-0.01106,,,,,,
41,400.390625,0.016429,1.192733,1.026802,-0.00256,-0.00512,-0.011337,,,,,,
42,410.15625,0.01683,1.221824,1.051846,-0.002622,-0.005245,-0.011614,,,,,,
43,419.921875,0.01723,1.250915,1.07689,-0.002685,-0.00537,-0.01189,,,,,,
44,429.6875,0.017631,1.280006,1.101934,-0.002747,-0.005495,-0.012167,,,,,,
45,439.453125,0.018032,1.309097,1.126978,-0.00281,-0.005619,-0.012443,,,,,,
46,449.21875,0.018432,1.338188,1.152022,-0.002872,-0.005744,-0.01272,,,,,,
47,458.984375,0.018833,1.36728,1.177066,-0.002935,-0.005869,-0.012996,,,,,,
48,468.75,0.019234,1.396371,1.20211,-0.002997,-0.005994,-0.013273,,,,,,
49,478.515625,0.019634,1.425462,1.227154,-0.003059,-0.006119,-0.013549,,,,,,
50,488.28125,0.020035,1.454553,1.252198,-0.003122,-0.006244,-0.013826,,,,,,
51,498.046875,0.020436,1.483644,1.277241,-0.003184,-0.006369,-0.014102,,,,,,
52,507.8125,0.020837,1.512735,1.302285,-0.003247,-0.006494,-0.014379,,,,,,
53,517.578125,0.021237,1.541826,1.327329,-0.003309,-0.006618,-0.014655,,,,,,
54,527.34375,0.021638,1.570917,1.352373,-0.003372,-0.006743,-0.014932,,,,,,
55,537.109375,0.022039,1.600008,1.377417,-0.003434,-0.006868,-0.015208,,,,,,
56,546.875,0.022439,1.629099,1.402461,-0.003497,-0.006993,-0.015485,,,,,,
57,556.640625,0.02284,1.65819,1.427505,-0.003559,-0.007118,-0.015761,,,,,,
58,566.40625,0.023241,1.687281,1.452549,-0.003621,-0.007243,-0.016038,,,,,,
59,576.171875,0.023641,1.716372,1.477593,-0.003684,-0.007368,-0.016314,,,,,,
60,585.9375,0.024042,1.745463,1.502637,-0.003746,-0.007493,-0.016591,,,,,,
61,595.703125,0.024443,1.774554,1.527681,-0.003809,-0.007617,-0.016867,,,,,,
62,605.46875,0.024844,1.803645,1.552725,-0.003871,-0.007742,-0.017144,,,,,,
63,615.234375,0.025244,1.832736,1.577769,-0.003934,-0.007867,-0.01742,,,,,,
64,625.0,0.025645,1.861827,1.602813,-0.003996,-0.007992,-0.017697,,,,,,
65,634.765625,0.026046,1.890918,1.627857,-0.004058,-0.008117,-0.017973,,,,,,
66,644.53125,0.026446,1.920009,1.652901,-0.004121,-0.008242,-0.01825,,,,,,
67,654.296875,0.026847,1.949101,1.677945,-0.004183,-0.008367,-0.018526,,,,,,
68,664.0625,0.027248,1.978192,1.702989,-0.004246,-0.008492,-0.018803,,,,,,
69,673.828125,0.027649,2.007283,1.728033,-0.004308,-0.008616,-0.019079,,,,,,
70,683.59375,0.028049,2.036374,1.753077,-0.004371,-0.008741,-0.019356,,,,,,
71,693.359375,0.02845,2.065465,1.778121,-0.004433,-0.008866,-0.019632,,,,,,
72,703.125,0.028851,2.094556,1.803164,-0.004496,-0.008991,-0.019909,,,,,,
73,712.890625,0.029251,2.123647,1.828208,-0.004558,-0.009116,-0.020185,,,,,,
74,722.65625,0.029652,2.152738,1.853252,-0.00462,-0.009241,-0.020462,,,,,,
75,732.421875,0.030053,2.181829,1.878296,-0.004683,-0.009366,-0.020738,,,,,,
76,742.1875,0.030453,2.21092,1.90334,-0.004745,-0.009491,-0.021015,,,,,,
77,751.953125,0.030854,2.240011,1.928384,-0.004808,-0.009615,-0.021291,,,,,,
78,761.71875,0.031255,2.269102,1.953428,-0.00487,-0.00974,-0.021568,,,,,,
79,771.484375,0.031656,2.298193,1.978472,-0.004933,-0.009865,-0.021844,,,,,,
80,781.25,0.032056,2.327284,2.003516,-0.004995,-0.00999,-0.022121,,,,,,
81,791.015625,0.032457,2.356375,2.02856,-0.005058,-0.010115,-0.022398,,,,,,
82,800.78125,0.032858,2.385466,2.053604,-0.00512,-0.01024,-0.022674,,,,,,
83,810.546875,0.033258,2.414557,2.078648,-0.005182,-0.010365,-0.022951,,,,,,
84,820.3125,0.033659,2.443648,2.103692,-0.005245,-0.01049,-0.023227,,,,,,
85,830.078125,0.03406,2.47274,2.128736,-0.005307,-0.010615,-0.023504,,,,,,
86,839.84375,0.03446,2.501831,2.15378,-0.00537,-0.010739,-0.02378,,,,,,
87,849.609375,0.034861,2.530922,2.178824,-0.005432,-0.010864,-0.024057,,,,,,
88,859.375,0.035262,2.560013,2.203868,-0.005495,-0.010989,-0.024333,,,,,,
89,869.140625,0.035663,2.589104,2.228912,-0.005557,-0.011114,-0.02461,,,,,,
90,878.90625,0.036063,2.618195,2.253956,-0.005619,-0.011239,-0.024886,,,,,,
91,888.671875,0.036464,2.647286,2.278999,-0.005682,-0.011364,-0.025163,,,,,,
92,898.4375,0.036865,2.676377,2.304043,-0.005744,-0.011489,-0.025439,,,,,,
93,908.203125,0.037265,2.705468,2.329087,-0.005807,-0.011614,-0.025716,,,,,,
94,917.96875,0.037666,2.734559,2.354131,-0.005869,-0.011738,-0.025992,,,,,,
95,927.734375,0.038067,2.76365,2.379175,-0.005932,-0.011863,-0.026269,,,,,,
96,937.5,0.038468,2.792741,2.404219,-0.005994,-0.011988,-0.026545,,,,,,
97,947.265625,0.038868,2.821832,2.429263,-0.006057,-0.012113,-0.026822,,,,,,
98,957.03125,0.039269,2.850923,2.454307,-0.006119,-0.012238,-0.027098,,,,,,
99,966.796875,0.03967,2.880014,2.479351,-0.006181,-0.012363,-0.027375,,,,,,
100,976.5625,0.04007,2.909105,2.504395,-0.006244,-0.012488,-0.027651,,,,,,
101,986.328125,0.040471,2.938196,2.529439,-0.006306,-0.012613,-0.027928,,,,,,
102,996.09375,0.040872,2.967288,2.554483,-0.006369,-0.012737,-0.028204,,,,,,
103,1005.859375,0.041272,2.996378,2.579527,-0.006431,-0.012862,-0.028481,,,,,,
104,1015.625,0.041673,3.02547,2.604571,-0.006494,-0.012987,-0.028757,,,,,,
105,1025.390625,0.042074,3.054561,2.629615,-0.006556,-0.013112,-0.029034,,,,,,
106,1035.15625,0.042475,3.083652,2.654659,-0.006618,-0.013237,-0.02931,,,,,,
107,1044.921875,0.042875,3.112743,2.679703,-0.006681,-0.013362,-0.029587,,,,,,
108,1054.6875,0.043276,3.141834,2.704747,-0.006743,-0.013487,-0.029863,,,,,,
109,1064.453125,0.043677,3.170925,2.72979,-0.006806,-0.013612,-0.03014,,,,,,
110,1074.21875,0.044077,3.200016,2.754834,-0.006868,-0.013736,-0.030416,,,,,,
111,1083.984375,0.044478,3.229107,2.779879,-0.006931,-0.013861,-0.030693,,,,,,
112,1093.75,0.044879,3.258198,2.804923,-0.006993,-0.013986,-0.030969,,,,,,
113,1103.515625,0.045279,3.287289,2.829967,-0.007056,-0.014111,-0.031246,,,,,,
114,1113.28125,0.04568,3.31638,2.85501,-0.007118,-0.014236,-0.031522,,,,,,
115,1123.046875,0.046081,3.345471,2.880054,-0.00718,-0.014361,-0.031799,,,,,,
116,1132.8125,0.046482,3.374562,2.905098,-0.007243,-0.014486,-0.032075,,,,,,
117,1142.578125,0.046882,3.403653,2.930142,-0.007305,-0.014611,-0.032352,,,,,,
118,1152.34375,0.047283,3.432744,2.955186,-0.007368,-0.014735,-0.032628,,,,,,
119,1162.109375,0.047684,3.461835,2.98023,-0.00743,-0.01486,-0.032905,,,,,,
120,1171.875,0.048084,3.490927,3.005274,-0.007493,-0.014985,-0.033181,,,,,,
121,1181.640625,0.048485,3.520017,3.030318,-0.007555,-0.01511,-0.033458,,,,,,
122,1191.40625,0.048886,3.549109,3.055362,-0.007617,-0.015235,-0.033735,,,,,,
123,1201.171875,0.049286,3.578199,3.080406,-0.00768,-0.01536,-0.034011,,,,,,
124,1210.9375,0.049687,3.607291,3.10545,-0.007742,-0.015485,-0.034288,,,,,,
125,1220.703125,0.050088,3.636382,3.130494,-0.007805,-0.01561,-0.034564,,,,,,
126,1230.46875,0.050489,3.665473,3.155538,-0.007867,-0.015734,-0.034841,,,,,,
127,1240.234375,0.050889,3.694564,3.180582,-0.00793,-0.015859,-0.035117,,,,,,
128,1250.0,0.05129,3.723655,3.205626,-0.007992,-0.015984,-0.035394,,,,,,
129,1259.765625,0.051691,3.752746,3.23067,-0.008055,-0.016109,-0.03567,,,,,,
130,1269.53125,0.052091,3.781837,3.255713,-0.008117,-0.016234,-0.035947,,,,,,
131,1279.296875,0.052492,3.810928,3.280757,-0.008179,-0.016359,-0.036223,,,,,,
132,1289.0625,0.052893,3.840019,3.305801,-0.008242,-0.016484,-0.0365,,,,,,
133,1298.828125,0.053294,3.86911,3.330845,-0.008304,-0.016609,-0.036776,,,,,,
134,1308.59375,0.053694,3.898201,3.35589,-0.008367,-0.016733,-0.037053,,,,,,
135,1318.359375,0.054095,3.927292,3.380933,-0.008429,-0.016858,-0.037329,,,,,,
136,1328.125,0.054496,3.956383,3.405977,-0.008492,-0.016983,-0.037606,,,,,,
137,1337.890625,0.054896,3.985474,3.431021,-0.008554,-0.017108,-0.037882,,,,,,
138,1347.65625,0.055297,4.014565,3.456065,-0.008616,-0.017233,-0.038159,,,,,,
139,1357.421875,0.055698,4.043656,3.481109,-0.008679,-0.017358,-0.038435,,,,,,
140,1367.1875,0.056098,4.072747,3.506153,-0.008741,-0.017483,-0.038712,,,,,,
141,1376.953125,0.056499,4.101838,3.531197,-0.008804,-0.017608,-0.038988,,,,,,
142,1386.71875,0.0569,4.130929,3.556241,-0.008866,-0.017732,-0.039265,,,,,,
143,1396.484375,0.057301,4.160021,3.581285,-0.008929,-0.017857,-0.039541,,,,,,
144,1406.25,0.057701,4.189112,3.606329,-0.008991,-0.017982,-0.039818,,,,,,
145,1416.015625,0.058102,4.218203,3.631373,-0.009054,-0.018107,-0.040094,,,,,,
146,1425.78125,0.058503,4.247293,3.656417,-0.009116,-0.018232,-0.040371,,,,,,
147,1435.546875,0.058903,4.276385,3.681461,-0.009178,-0.018357,-0.040647,,,,,,
148,1445.3125,0.059304,4.305476,3.706505,-0.009241,-0.018482,-0.040924,,,,,,
149,1455.297607,0.059714,4.33522,3.732111,-0.009305,-0.018609,-0.041207,,,,,,
150,1465.282715,0.060123,4.364965,3.757718,-0.009369,-0.018737,-0.041489,,,,,,
151,1475.2677,0.060533,4.39471,3.783325,-0.009432,-0.018865,-0.041772,,,,,,
152,1485.252808,0.060943,4.424455,3.808931,-0.009496,-0.018992,-0.042055,,,,,,
153,1495.237915,0.061353,4.4542,3.834538,-0.00956,-0.01912,-0.042337,,,,,,
154,1505.223022,0.061762,4.483945,3.860145,-0.009624,-0.019248,-0.04262,,,,,,
155,1515.208008,0.062172,4.51369,3.885752,-0.009688,-0.019376,-0.042903,,,,,,
156,1525.193115,0.062582,4.543434,3.911359,-0.009752,-0.019503,-0.043186,,,,,,
157,1535.178223,0.062991,4.573179,3.936965,-0.009815,-0.019631,-0.043468,,,,,,
158,1545.16333,0.063401,4.602924,3.962572,-0.009879,-0.019759,-0.043751,,,,,,
159,1555.148315,0.063811,4.632668,3.988179,-0.009943,-0.019886,-0.044034,,,,,,
160,1565.133423,0.064221,4.662414,4.013785,-0.010007,-0.020014,-0.044317,,,,,,
161,1575.11853,0.06463,4.692158,4.039392,-0.010071,-0.020142,-0.044599,,,,,,
162,1585.103638,0.06504,4.721903,4.064999,-0.010135,-0.020269,-0.044882,,,,,,
163,1595.088623,0.06545,4.751647,4.090606,-0.010198,-0.020397,-0.045165,,,,,,
164,1605.07373,0.065859,4.781393,4.116212,-0.010262,-0.020525,-0.045447,,,,,,
165,1615.058838,0.066269,4.811137,4.141819,-0.010326,-0.020652,-0.04573,,,,,,
166,1625.043945,0.066679,4.840882,4.167426,-0.01039,-0.02078,-0.046013,,,,,,
167,1635.028931,0.067089,4.870627,4.193033,-0.010454,-0.020908,-0.046296,,,,,,
168,1645.014038,0.067498,4.900372,4.218639,-0.010518,-0.021035,-0.046578,,,,,,
169,1654.999146,0.067908,4.930116,4.244246,-0.010582,-0.021163,-0.046861,,,,,,
170,1664.984253,0.068318,4.959861,4.269853,-0.010645,-0.021291,-0.047144,,,,,,
171,1674.969238,0.068727,4.989606,4.29546,-0.010709,-0.021418,-0.047427,,,,,,
172,1684.954346,0.069137,5.019351,4.321066,-0.010773,-0.021546,-0.047709,,,,,,
173,1694.939453,0.069547,5.049096,4.346673,-0.010837,-0.021674,-0.047992,,,,,,
174,1704.924561,0.069956,5.07884,4.37228,-0.010901,-0.021801,-0.048275,,,,,,
175,1714.909546,0.070366,5.108585,4.397886,-0.010965,-0.021929,-0.048557,,,,,,
176,1724.894653,0.070776,5.13833,4.423493,-0.011028,-0.022057,-0.04884,,,,,,
177,1734.879761,0.071186,5.168075,4.4491,-0.011092,-0.022185,-0.049123,,,,,,
178,1744.864868,0.071595,5.197819,4.474707,-0.011156,-0.022312,-0.049406,,,,,,
179,1754.849854,0.072005,5.227564,4.500313,-0.01122,-0.02244,-0.049688,,,,,,
180,1764.834961,0.072415,5.257309,4.52592,-0.011284,-0.022568,-0.049971,,,,,,
181,1774.820068,0.072824,5.287054,4.551527,-0.011348,-0.022695,-0.050254,,,,,,
182,1784.805176,0.073234,5.316798,4.577134,-0.011411,-0.022823,-0.050537,,,,,,
183,1794.790161,0.073644,5.346543,4.60274,-0.011475,-0.022951,-0.050819,,,,,,
184,1804.775269,0.074054,5.376288,4.628347,-0.011539,-0.023078,-0.051102,,,,,,
185,1814.760376,0.074463,5.406033,4.653954,-0.011603,-0.023206,-0.051385,,,,,,
186,1824.745483,0.074873,5.435778,4.679561,-0.011667,-0.023334,-0.051667,,,,,,
187,1834.730469,0.075283,5.465523,4.705167,-0.011731,-0.023461,-0.05195,,,,,,
188,1844.715576,0.075692,5.495267,4.730774,-0.011795,-0.023589,-0.052233,,,,,,
189,1854.700684,0.076102,5.525012,4.756381,-0.011858,-0.023717,-0.052516,,,,,,
190,1864.685791,0.076512,5.554757,4.781988,-0.011922,-0.023844,-0.052798,,,,,,
191,1874.670776,0.076922,5.584502,4.807594,-0.011986,-0.023972,-0.053081,,,,,,
192,1884.655884,0.077331,5.614246,4.833201,-0.01205,-0.0241,-0.053364,,,,,,
193,1894.640991,0.077741,5.643991,4.858808,-0.012114,-0.024227,-0.053647,,,,,,
194,1904.626099,0.078151,5.673736,4.884415,-0.012178,-0.024355,-0.053929,,,,,,
195,1914.611084,0.07856,5.703481,4.910021,-0.012241,-0.024483,-0.054212,,,,,,
196,1924.596191,0.07897,5.733225,4.935628,-0.012305,-0.024611,-0.054495,,,,,,
197,1934.581299,0.07938,5.76297,4.961235,-0.012369,-0.024738,-0.054777,,,,,,
198,1944.566406,0.079789,5.792715,4.986842,-0.012433,-0.024866,-0.05506,,,,,,
0,0.0,0.0,0.0,0.0,0.0,0.0,0.0, R435,,,,,
1,9.765625,0.00027,-0.00233,0.026842,8e-06,-0.00027,-0.00013,,,,,,
2,19.53125,0.00054,-0.00465,0.053684,1.5e-05,-0.00053,-0.00026,,,,,,
3,29.29688,0.000809,-0.00698,0.080526,2.3e-05,-0.0008,-0.00038,,,,,,
4,39.0625,0.001079,-0.00931,0.107368,3e-05,-0.00107,-0.00051,,,,,,
5,48.82813,0.001349,-0.01163,0.13421,3.8e-05,-0.00133,-0.00064,,,,,,
6,58.59375,0.001619,-0.01396,0.161052,4.5e-05,-0.0016,-0.00077,,,,,,
7,68.35938,0.001888,-0.01629,0.187894,5.3e-05,-0.00187,-0.00089,,,,,,
8,78.125,0.002158,-0.01861,0.214736,6e-05,-0.00213,-0.00102,,,,,,
9,87.89063,0.002428,-0.02094,0.241578,6.8e-05,-0.0024,-0.00115,,,,,,
10,97.65625,0.002698,-0.02327,0.26842,7.5e-05,-0.00267,-0.00128,,,,,,
11,107.4219,0.002967,-0.02559,0.295262,8.3e-05,-0.00293,-0.0014,,,,,,
12,117.1875,0.003237,-0.02792,0.322104,9e-05,-0.0032,-0.00153,,,,,,
13,126.9531,0.003507,-0.03025,0.348946,9.8e-05,-0.00346,-0.00166,,,,,,
14,136.7188,0.003777,-0.03258,0.375789,0.000105,-0.00373,-0.00179,,,,,,
15,146.4844,0.004047,-0.0349,0.402631,0.000113,-0.004,-0.00191,,,,,,
16,156.25,0.004316,-0.03723,0.429473,0.00012,-0.00426,-0.00204,,,,,,
17,166.0156,0.004586,-0.03956,0.456315,0.000128,-0.00453,-0.00217,,,,,,
18,175.7813,0.004856,-0.04188,0.483157,0.000135,-0.0048,-0.0023,,,,,,
19,185.5469,0.005126,-0.04421,0.509999,0.000143,-0.00506,-0.00243,,,,,,
20,195.3125,0.005395,-0.04654,0.536841,0.00015,-0.00533,-0.00255,,,,,,
21,205.0781,0.005665,-0.04886,0.563683,0.000158,-0.0056,-0.00268,,,,,,
22,214.8438,0.005935,-0.05119,0.590525,0.000165,-0.00586,-0.00281,,,,,,
23,224.6094,0.006205,-0.05352,0.617367,0.000173,-0.00613,-0.00294,,,,,,
24,234.375,0.006474,-0.05584,0.644209,0.00018,-0.0064,-0.00306,,,,,,
25,244.1406,0.006744,-0.05817,0.671051,0.000188,-0.00666,-0.00319,,,,,,
26,253.9063,0.007014,-0.0605,0.697893,0.000195,-0.00693,-0.00332,,,,,,
27,263.6719,0.007284,-0.06282,0.724735,0.000203,-0.0072,-0.00345,,,,,,
28,273.4375,0.007554,-0.06515,0.751577,0.00021,-0.00746,-0.00357,,,,,,
29,283.2031,0.007823,-0.06748,0.778419,0.000218,-0.00773,-0.0037,,,,,,
30,292.9688,0.008093,-0.0698,0.805261,0.000225,-0.00799,-0.00383,,,,,,
31,302.7344,0.008363,-0.07213,0.832103,0.000233,-0.00826,-0.00396,,,,,,
32,312.5,0.008633,-0.07446,0.858945,0.00024,-0.00853,-0.00408,,,,,,
33,322.2656,0.008902,-0.07678,0.885787,0.000248,-0.00879,-0.00421,,,,,,
34,332.0313,0.009172,-0.07911,0.912629,0.000255,-0.00906,-0.00434,,,,,,
35,341.7969,0.009442,-0.08144,0.939471,0.000263,-0.00933,-0.00447,,,,,,
36,351.5625,0.009712,-0.08376,0.966313,0.00027,-0.00959,-0.00459,,,,,,
37,361.3281,0.009981,-0.08609,0.993155,0.000278,-0.00986,-0.00472,,,,,,
38,371.0938,0.010251,-0.08842,1.019997,0.000285,-0.01013,-0.00485,,,,,,
39,380.8594,0.010521,-0.09074,1.046839,0.000293,-0.01039,-0.00498,,,,,,
40,390.625,0.010791,-0.09307,1.073681,0.0003,-0.01066,-0.0051,,,,,,
41,400.3906,0.011061,-0.0954,1.100523,0.000308,-0.01093,-0.00523,,,,,,
42,410.1563,0.01133,-0.09772,1.127365,0.000315,-0.01119,-0.00536,,,,,,
43,419.9219,0.0116,-0.10005,1.154207,0.000323,-0.01146,-0.00549,,,,,,
44,429.6875,0.01187,-0.10238,1.18105,0.00033,-0.01173,-0.00562,,,,,,
45,439.4531,0.01214,-0.1047,1.207892,0.000338,-0.01199,-0.00574,,,,,,
46,449.2188,0.012409,-0.10703,1.234734,0.000345,-0.01226,-0.00587,,,,,,
47,458.9844,0.012679,-0.10936,1.261576,0.000353,-0.01252,-0.006,,,,,,
48,468.75,0.012949,-0.11168,1.288418,0.00036,-0.01279,-0.00613,,,,,,
49,478.5156,0.013219,-0.11401,1.31526,0.000368,-0.01306,-0.00625,,,,,,
50,488.2813,0.013488,-0.11634,1.342102,0.000375,-0.01332,-0.00638,,,,,,
51,498.0469,0.013758,-0.11867,1.368944,0.000383,-0.01359,-0.00651,,,,,,
52,507.8125,0.014028,-0.12099,1.395786,0.00039,-0.01386,-0.00664,,,,,,
53,517.5781,0.014298,-0.12332,1.422628,0.000398,-0.01412,-0.00676,,,,,,
54,527.3438,0.014568,-0.12565,1.44947,0.000405,-0.01439,-0.00689,,,,,,
55,537.1094,0.014837,-0.12797,1.476312,0.000413,-0.01466,-0.00702,,,,,,
56,546.875,0.015107,-0.1303,1.503154,0.00042,-0.01492,-0.00715,,,,,,
57,556.6406,0.015377,-0.13263,1.529996,0.000428,-0.01519,-0.00727,,,,,,
58,566.4063,0.015647,-0.13495,1.556838,0.000435,-0.01546,-0.0074,,,,,,
59,576.1719,0.015916,-0.13728,1.58368,0.000443,-0.01572,-0.00753,,,,,,
60,585.9375,0.016186,-0.13961,1.610522,0.00045,-0.01599,-0.00766,,,,,,
61,595.7031,0.016456,-0.14193,1.637364,0.000458,-0.01626,-0.00778,,,,,,
62,605.4688,0.016726,-0.14426,1.664206,0.000465,-0.01652,-0.00791,,,,,,
63,615.2344,0.016995,-0.14659,1.691048,0.000473,-0.01679,-0.00804,,,,,,
64,625.0,0.017265,-0.14891,1.71789,0.00048,-0.01706,-0.00817,,,,,,
65,634.7656,0.017535,-0.15124,1.744732,0.000488,-0.01732,-0.0083,,,,,,
66,644.5313,0.017805,-0.15357,1.771574,0.000495,-0.01759,-0.00842,,,,,,
67,654.2969,0.018075,-0.15589,1.798416,0.000503,-0.01785,-0.00855,,,,,,
68,664.0625,0.018344,-0.15822,1.825258,0.00051,-0.01812,-0.00868,,,,,,
69,673.8281,0.018614,-0.16055,1.8521,0.000518,-0.01839,-0.00881,,,,,,
70,683.5938,0.018884,-0.16287,1.878942,0.000525,-0.01865,-0.00893,,,,,,
71,693.3594,0.019154,-0.1652,1.905784,0.000533,-0.01892,-0.00906,,,,,,
72,703.125,0.019423,-0.16753,1.932626,0.00054,-0.01919,-0.00919,,,,,,
73,712.8906,0.019693,-0.16985,1.959469,0.000548,-0.01945,-0.00932,,,,,,
74,722.6563,0.019963,-0.17218,1.986311,0.000555,-0.01972,-0.00944,,,,,,
75,732.4219,0.020233,-0.17451,2.013153,0.000563,-0.01999,-0.00957,,,,,,
76,742.1875,0.020502,-0.17683,2.039995,0.00057,-0.02025,-0.0097,,,,,,
77,751.9531,0.020772,-0.17916,2.066837,0.000578,-0.02052,-0.00983,,,,,,
78,761.7188,0.021042,-0.18149,2.093679,0.000586,-0.02079,-0.00995,,,,,,
79,771.4844,0.021312,-0.18381,2.120521,0.000593,-0.02105,-0.01008,,,,,,
80,781.25,0.021582,-0.18614,2.147363,0.000601,-0.02132,-0.01021,,,,,,
81,791.0156,0.021851,-0.18847,2.174205,0.000608,-0.02159,-0.01034,,,,,,
82,800.7813,0.022121,-0.19079,2.201047,0.000616,-0.02185,-0.01046,,,,,,
83,810.5469,0.022391,-0.19312,2.227889,0.000623,-0.02212,-0.01059,,,,,,
84,820.3125,0.022661,-0.19545,2.254731,0.000631,-0.02238,-0.01072,,,,,,
85,830.0781,0.02293,-0.19778,2.281573,0.000638,-0.02265,-0.01085,,,,,,
86,839.8438,0.0232,-0.2001,2.308415,0.000646,-0.02292,-0.01097,,,,,,
87,849.6094,0.02347,-0.20243,2.335257,0.000653,-0.02318,-0.0111,,,,,,
88,859.375,0.02374,-0.20476,2.362099,0.000661,-0.02345,-0.01123,,,,,,
89,869.1406,0.024009,-0.20708,2.388941,0.000668,-0.02372,-0.01136,,,,,,
90,878.9063,0.024279,-0.20941,2.415783,0.000676,-0.02398,-0.01149,,,,,,
91,888.6719,0.024549,-0.21174,2.442625,0.000683,-0.02425,-0.01161,,,,,,
92,898.4375,0.024819,-0.21406,2.469467,0.000691,-0.02452,-0.01174,,,,,,
93,908.2031,0.025089,-0.21639,2.496309,0.000698,-0.02478,-0.01187,,,,,,
94,917.9688,0.025358,-0.21872,2.523151,0.000706,-0.02505,-0.012,,,,,,
95,927.7344,0.025628,-0.22104,2.549993,0.000713,-0.02532,-0.01212,,,,,,
96,937.5,0.025898,-0.22337,2.576835,0.000721,-0.02558,-0.01225,,,,,,
97,947.2656,0.026168,-0.2257,2.603678,0.000728,-0.02585,-0.01238,,,,,,
98,957.0313,0.026437,-0.22802,2.630519,0.000736,-0.02612,-0.01251,,,,,,
99,966.7969,0.026707,-0.23035,2.657361,0.000743,-0.02638,-0.01263,,,,,,
100,976.5625,0.026977,-0.23268,2.684204,0.000751,-0.02665,-0.01276,,,,,,
101,986.3281,0.027247,-0.235,2.711046,0.000758,-0.02691,-0.01289,,,,,,
102,996.0938,0.027516,-0.23733,2.737888,0.000766,-0.02718,-0.01302,,,,,,
103,1005.859,0.027786,-0.23966,2.764729,0.000773,-0.02745,-0.01314,,,,,,
104,1015.625,0.028056,-0.24198,2.791572,0.000781,-0.02771,-0.01327,,,,,,
105,1025.391,0.028326,-0.24431,2.818414,0.000788,-0.02798,-0.0134,,,,,,
106,1035.156,0.028596,-0.24664,2.845256,0.000796,-0.02825,-0.01353,,,,,,
107,1044.922,0.028865,-0.24896,2.872098,0.000803,-0.02851,-0.01365,,,,,,
108,1054.688,0.029135,-0.25129,2.89894,0.000811,-0.02878,-0.01378,,,,,,
109,1064.453,0.029405,-0.25362,2.925782,0.000818,-0.02905,-0.01391,,,,,,
110,1074.219,0.029675,-0.25594,2.952624,0.000826,-0.02931,-0.01404,,,,,,
111,1083.984,0.029944,-0.25827,2.979466,0.000833,-0.02958,-0.01417,,,,,,
112,1093.75,0.030214,-0.2606,3.006308,0.000841,-0.02985,-0.01429,,,,,,
113,1103.516,0.030484,-0.26292,3.03315,0.000848,-0.03011,-0.01442,,,,,,
114,1113.281,0.030754,-0.26525,3.059992,0.000856,-0.03038,-0.01455,,,,,,
115,1123.047,0.031023,-0.26758,3.086834,0.000863,-0.03065,-0.01468,,,,,,
116,1132.813,0.031293,-0.2699,3.113676,0.000871,-0.03091,-0.0148,,,,,,
117,1142.578,0.031563,-0.27223,3.140518,0.000878,-0.03118,-0.01493,,,,,,
118,1152.344,0.031833,-0.27456,3.16736,0.000886,-0.03144,-0.01506,,,,,,
119,1162.109,0.032103,-0.27688,3.194202,0.000893,-0.03171,-0.01519,,,,,,
120,1171.875,0.032372,-0.27921,3.221044,0.000901,-0.03198,-0.01531,,,,,,
121,1181.641,0.032642,-0.28154,3.247886,0.000908,-0.03224,-0.01544,,,,,,
122,1191.406,0.032912,-0.28387,3.274728,0.000916,-0.03251,-0.01557,,,,,,
123,1201.172,0.033182,-0.28619,3.30157,0.000923,-0.03278,-0.0157,,,,,,
124,1210.938,0.033451,-0.28852,3.328413,0.000931,-0.03304,-0.01582,,,,,,
125,1220.703,0.033721,-0.29085,3.355254,0.000938,-0.03331,-0.01595,,,,,,
126,1230.469,0.033991,-0.29317,3.382096,0.000946,-0.03358,-0.01608,,,,,,
127,1240.234,0.034261,-0.2955,3.408938,0.000953,-0.03384,-0.01621,,,,,,
128,1250.0,0.03453,-0.29783,3.435781,0.000961,-0.03411,-0.01633,,,,,,
129,1259.766,0.0348,-0.30015,3.462623,0.000968,-0.03438,-0.01646,,,,,,
130,1269.531,0.03507,-0.30248,3.489465,0.000976,-0.03464,-0.01659,,,,,,
131,1279.297,0.03534,-0.30481,3.516307,0.000983,-0.03491,-0.01672,,,,,,
132,1289.063,0.03561,-0.30713,3.543149,0.000991,-0.03518,-0.01684,,,,,,
133,1298.828,0.035879,-0.30946,3.569991,0.000998,-0.03544,-0.01697,,,,,,
134,1308.594,0.036149,-0.31179,3.596833,0.001006,-0.03571,-0.0171,,,,,,
135,1318.359,0.036419,-0.31411,3.623675,0.001013,-0.03597,-0.01723,,,,,,
136,1328.125,0.036689,-0.31644,3.650517,0.001021,-0.03624,-0.01736,,,,,,
137,1337.891,0.036958,-0.31877,3.677359,0.001028,-0.03651,-0.01748,,,,,,
138,1347.656,0.037228,-0.32109,3.704201,0.001036,-0.03677,-0.01761,,,,,,
139,1357.422,0.037498,-0.32342,3.731043,0.001043,-0.03704,-0.01774,,,,,,
140,1367.188,0.037768,-0.32575,3.757885,0.001051,-0.03731,-0.01787,,,,,,
141,1376.953,0.038037,-0.32807,3.784727,0.001058,-0.03757,-0.01799,,,,,,
142,1386.719,0.038307,-0.3304,3.811569,0.001066,-0.03784,-0.01812,,,,,,
143,1396.484,0.038577,-0.33273,3.838411,0.001073,-0.03811,-0.01825,,,,,,
144,1406.25,0.038847,-0.33505,3.865253,0.001081,-0.03837,-0.01838,,,,,,
145,1416.016,0.039117,-0.33738,3.892095,0.001088,-0.03864,-0.0185,,,,,,
146,1425.781,0.039386,-0.33971,3.918937,0.001096,-0.03891,-0.01863,,,,,,
147,1435.547,0.039656,-0.34203,3.945779,0.001103,-0.03917,-0.01876,,,,,,
148,1445.313,0.039926,-0.34436,3.972621,0.001111,-0.03944,-0.01889,,,,,,
149,1455.078,0.040196,-0.34669,3.999463,0.001118,-0.03971,-0.01901,,,,,,
150,1465.066,0.040472,-0.34907,4.026915,0.001126,-0.03998,-0.01914,,,,,,
151,1475.053,0.040747,-0.35145,4.054368,0.001134,-0.04025,-0.01928,,,,,,
152,1485.041,0.041023,-0.35383,4.08182,0.001141,-0.04052,-0.01941,,,,,,
153,1495.028,0.041299,-0.35621,4.109272,0.001149,-0.0408,-0.01954,,,,,,
154,1505.016,0.041575,-0.35859,4.136724,0.001157,-0.04107,-0.01967,,,,,,
155,1515.004,0.041851,-0.36097,4.164176,0.001165,-0.04134,-0.0198,,,,,,
156,1524.991,0.042127,-0.36335,4.191628,0.001172,-0.04161,-0.01993,,,,,,
157,1534.979,0.042403,-0.36572,4.219079,0.00118,-0.04189,-0.02006,,,,,,
158,1544.966,0.042679,-0.3681,4.246532,0.001188,-0.04216,-0.02019,,,,,,
159,1554.954,0.042955,-0.37048,4.273984,0.001195,-0.04243,-0.02032,,,,,,
160,1564.941,0.043231,-0.37286,4.301436,0.001203,-0.0427,-0.02045,,,,,,
161,1574.929,0.043506,-0.37524,4.328888,0.001211,-0.04298,-0.02058,,,,,,
162,1584.917,0.043782,-0.37762,4.35634,0.001218,-0.04325,-0.02071,,,,,,
163,1594.904,0.044058,-0.38,4.383792,0.001226,-0.04352,-0.02084,,,,,,
164,1604.892,0.044334,-0.38238,4.411244,0.001234,-0.04379,-0.02097,,,,,,
165,1614.879,0.04461,-0.38476,4.438696,0.001241,-0.04407,-0.0211,,,,,,
166,1624.867,0.044886,-0.38714,4.466148,0.001249,-0.04434,-0.02123,,,,,,
167,1634.854,0.045162,-0.38952,4.493601,0.001257,-0.04461,-0.02136,,,,,,
168,1644.842,0.045438,-0.3919,4.521053,0.001264,-0.04488,-0.02149,,,,,,
169,1654.83,0.045714,-0.39428,4.548505,0.001272,-0.04516,-0.02162,,,,,,
170,1664.817,0.04599,-0.39666,4.575957,0.00128,-0.04543,-0.02175,,,,,,
171,1674.805,0.046265,-0.39904,4.603409,0.001287,-0.0457,-0.02189,,,,,,
172,1684.792,0.046541,-0.40142,4.630861,0.001295,-0.04597,-0.02202,,,,,,
173,1694.78,0.046817,-0.4038,4.658313,0.001303,-0.04625,-0.02215,,,,,,
174,1704.767,0.047093,-0.40618,4.685765,0.00131,-0.04652,-0.02228,,,,,,
175,1714.755,0.047369,-0.40856,4.713217,0.001318,-0.04679,-0.02241,,,,,,
176,1724.743,0.047645,-0.41094,4.740669,0.001326,-0.04706,-0.02254,,,,,,
177,1734.73,0.047921,-0.41332,4.768122,0.001333,-0.04734,-0.02267,,,,,,
178,1744.718,0.048197,-0.4157,4.795574,0.001341,-0.04761,-0.0228,,,,,,
179,1754.705,0.048473,-0.41808,4.823026,0.001349,-0.04788,-0.02293,,,,,,
180,1764.693,0.048749,-0.42046,4.850478,0.001356,-0.04815,-0.02306,,,,,,
181,1774.68,0.049024,-0.42284,4.87793,0.001364,-0.04843,-0.02319,,,,,,
182,1784.668,0.0493,-0.42522,4.905382,0.001372,-0.0487,-0.02332,,,,,,
183,1794.656,0.049576,-0.4276,4.932834,0.001379,-0.04897,-0.02345,,,,,,
184,1804.643,0.049852,-0.42998,4.960286,0.001387,-0.04924,-0.02358,,,,,,
185,1814.631,0.050128,-0.43235,4.987738,0.001395,-0.04952,-0.02371,,,,,,
186,1824.618,0.050404,-0.43473,5.01519,0.001403,-0.04979,-0.02384,,,,,,
187,1834.606,0.05068,-0.43711,5.042643,0.00141,-0.05006,-0.02397,,,,,,
188,1844.593,0.050956,-0.43949,5.070095,0.001418,-0.05033,-0.0241,,,,,,
189,1854.581,0.051232,-0.44187,5.097546,0.001426,-0.05061,-0.02423,,,,,,
190,1864.568,0.051508,-0.44425,5.124999,0.001433,-0.05088,-0.02437,,,,,,
191,1874.556,0.051783,-0.44663,5.152451,0.001441,-0.05115,-0.0245,,,,,,
192,1884.544,0.052059,-0.44901,5.179903,0.001449,-0.05142,-0.02463,,,,,,
193,1894.531,0.052335,-0.45139,5.207355,0.001456,-0.0517,-0.02476,,,,,,
194,1904.519,0.052611,-0.45377,5.234807,0.001464,-0.05197,-0.02489,,,,,,
195,1914.506,0.052887,-0.45615,5.262259,0.001472,-0.05224,-0.02502,,,,,,
196,1924.494,0.053163,-0.45853,5.289711,0.001479,-0.05251,-0.02515,,,,,,
197,1934.482,0.053439,-0.46091,5.317163,0.001487,-0.05279,-0.02528,,,,,,
198,1944.469,0.053715,-0.46329,5.344615,0.001495,-0.05306,-0.02541,,,,,,
0,0.0,0.0,0.0,0.0,0.0,0.0,0.0, R430,,,,,
1,9.765625,-0.00028,0.002455,0.039756,0.00017,-5.4e-05,3.6e-05,,,,,,
2,19.53125,-0.00056,0.004909,0.079512,0.00034,-0.00011,7.2e-05,,,,,,
3,29.29688,-0.00085,0.007364,0.119267,0.000511,-0.00016,0.000107,,,,,,
4,39.0625,-0.00113,0.009818,0.159023,0.000681,-0.00022,0.000143,,,,,,
5,48.82813,-0.00141,0.012273,0.198779,0.000851,-0.00027,0.000179,,,,,,
6,58.59375,-0.00169,0.014727,0.238535,0.001021,-0.00032,0.000215,,,,,,
7,68.35938,-0.00197,0.017182,0.278291,0.001191,-0.00038,0.000251,,,,,,
8,78.125,-0.00225,0.019636,0.318047,0.001361,-0.00043,0.000287,,,,,,
9,87.89063,-0.00254,0.022091,0.357802,0.001532,-0.00048,0.000322,,,,,,
10,97.65625,-0.00282,0.024546,0.397558,0.001702,-0.00054,0.000358,,,,,,
11,107.4219,-0.0031,0.027,0.437314,0.001872,-0.00059,0.000394,,,,,,
12,117.1875,-0.00338,0.029455,0.47707,0.002042,-0.00065,0.00043,,,,,,
13,126.9531,-0.00366,0.031909,0.516826,0.002212,-0.0007,0.000466,,,,,,
14,136.7188,-0.00394,0.034364,0.556581,0.002383,-0.00075,0.000502,,,,,,
15,146.4844,-0.00423,0.036818,0.596337,0.002553,-0.00081,0.000537,,,,,,
16,156.25,-0.00451,0.039273,0.636093,0.002723,-0.00086,0.000573,,,,,,
17,166.0156,-0.00479,0.041728,0.675849,0.002893,-0.00091,0.000609,,,,,,
18,175.7813,-0.00507,0.044182,0.715605,0.003063,-0.00097,0.000645,,,,,,
19,185.5469,-0.00535,0.046637,0.755361,0.003234,-0.00102,0.000681,,,,,,
20,195.3125,-0.00563,0.049091,0.795116,0.003404,-0.00108,0.000717,,,,,,
21,205.0781,-0.00592,0.051546,0.834872,0.003574,-0.00113,0.000752,,,,,,
22,214.8438,-0.0062,0.054,0.874628,0.003744,-0.00118,0.000788,,,,,,
23,224.6094,-0.00648,0.056455,0.914384,0.003914,-0.00124,0.000824,,,,,,
24,234.375,-0.00676,0.058909,0.95414,0.004084,-0.00129,0.00086,,,,,,
25,244.1406,-0.00704,0.061364,0.993895,0.004255,-0.00134,0.000896,,,,,,
26,253.9063,-0.00732,0.063819,1.033651,0.004425,-0.0014,0.000932,,,,,,
27,263.6719,-0.00761,0.066273,1.073407,0.004595,-0.00145,0.000967,,,,,,
28,273.4375,-0.00789,0.068728,1.113163,0.004765,-0.00151,0.001003,,,,,,
29,283.2031,-0.00817,0.071182,1.152919,0.004935,-0.00156,0.001039,,,,,,
30,292.9688,-0.00845,0.073637,1.192675,0.005106,-0.00161,0.001075,,,,,,
31,302.7344,-0.00873,0.076091,1.23243,0.005276,-0.00167,0.001111,,,,,,
32,312.5,-0.00901,0.078546,1.272186,0.005446,-0.00172,0.001147,,,,,,
33,322.2656,-0.0093,0.081,1.311942,0.005616,-0.00177,0.001182,,,,,,
34,332.0313,-0.00958,0.083455,1.351698,0.005786,-0.00183,0.001218,,,,,,
35,341.7969,-0.00986,0.08591,1.391454,0.005957,-0.00188,0.001254,,,,,,
36,351.5625,-0.01014,0.088364,1.431209,0.006127,-0.00194,0.00129,,,,,,
37,361.3281,-0.01042,0.090819,1.470965,0.006297,-0.00199,0.001326,,,,,,
38,371.0938,-0.0107,0.093273,1.510721,0.006467,-0.00204,0.001361,,,,,,
39,380.8594,-0.01099,0.095728,1.550477,0.006637,-0.0021,0.001397,,,,,,
40,390.625,-0.01127,0.098182,1.590233,0.006807,-0.00215,0.001433,,,,,,
41,400.3906,-0.01155,0.100637,1.629989,0.006978,-0.0022,0.001469,,,,,,
42,410.1563,-0.01183,0.103092,1.669744,0.007148,-0.00226,0.001505,,,,,,
43,419.9219,-0.01211,0.105546,1.7095,0.007318,-0.00231,0.001541,,,,,,
44,429.6875,-0.01239,0.108001,1.749256,0.007488,-0.00237,0.001576,,,,,,
45,439.4531,-0.01268,0.110455,1.789012,0.007658,-0.00242,0.001612,,,,,,
46,449.2188,-0.01296,0.11291,1.828768,0.007829,-0.00247,0.001648,,,,,,
47,458.9844,-0.01324,0.115364,1.868523,0.007999,-0.00253,0.001684,,,,,,
48,468.75,-0.01352,0.117819,1.908279,0.008169,-0.00258,0.00172,,,,,,
49,478.5156,-0.0138,0.120273,1.948035,0.008339,-0.00263,0.001756,,,,,,
50,488.2813,-0.01408,0.122728,1.987791,0.008509,-0.00269,0.001791,,,,,,
51,498.0469,-0.01437,0.125183,2.027547,0.00868,-0.00274,0.001827,,,,,,
52,507.8125,-0.01465,0.127637,2.067302,0.00885,-0.0028,0.001863,,,,,,
53,517.5781,-0.01493,0.130092,2.107058,0.00902,-0.00285,0.001899,,,,,,
54,527.3438,-0.01521,0.132546,2.146814,0.00919,-0.0029,0.001935,,,,,,
55,537.1094,-0.01549,0.135001,2.18657,0.00936,-0.00296,0.001971,,,,,,
56,546.875,-0.01577,0.137455,2.226326,0.00953,-0.00301,0.002006,,,,,,
57,556.6406,-0.01606,0.13991,2.266082,0.009701,-0.00306,0.002042,,,,,,
58,566.4063,-0.01634,0.142364,2.305837,0.009871,-0.00312,0.002078,,,,,,
59,576.1719,-0.01662,0.144819,2.345593,0.010041,-0.00317,0.002114,,,,,,
60,585.9375,-0.0169,0.147274,2.385349,0.010211,-0.00323,0.00215,,,,,,
61,595.7031,-0.01718,0.149728,2.425105,0.010381,-0.00328,0.002186,,,,,,
62,605.4688,-0.01746,0.152183,2.464861,0.010552,-0.00333,0.002221,,,,,,
63,615.2344,-0.01775,0.154637,2.504616,0.010722,-0.00339,0.002257,,,,,,
64,625.0,-0.01803,0.157092,2.544372,0.010892,-0.00344,0.002293,,,,,,
65,634.7656,-0.01831,0.159546,2.584128,0.011062,-0.00349,0.002329,,,,,,
66,644.5313,-0.01859,0.162001,2.623884,0.011232,-0.00355,0.002365,,,,,,
67,654.2969,-0.01887,0.164456,2.66364,0.011403,-0.0036,0.002401,,,,,,
68,664.0625,-0.01915,0.16691,2.703396,0.011573,-0.00366,0.002436,,,,,,
69,673.8281,-0.01944,0.169365,2.743151,0.011743,-0.00371,0.002472,,,,,,
70,683.5938,-0.01972,0.171819,2.782907,0.011913,-0.00376,0.002508,,,,,,
71,693.3594,-0.02,0.174274,2.822663,0.012083,-0.00382,0.002544,,,,,,
72,703.125,-0.02028,0.176728,2.862419,0.012253,-0.00387,0.00258,,,,,,
73,712.8906,-0.02056,0.179183,2.902175,0.012424,-0.00392,0.002616,,,,,,
74,722.6563,-0.02084,0.181637,2.941931,0.012594,-0.00398,0.002651,,,,,,
75,732.4219,-0.02113,0.184092,2.981686,0.012764,-0.00403,0.002687,,,,,,
76,742.1875,-0.02141,0.186547,3.021442,0.012934,-0.00408,0.002723,,,,,,
77,751.9531,-0.02169,0.189001,3.061198,0.013104,-0.00414,0.002759,,,,,,
78,761.7188,-0.02197,0.191456,3.100954,0.013275,-0.00419,0.002795,,,,,,
79,771.4844,-0.02225,0.19391,3.14071,0.013445,-0.00425,0.00283,,,,,,
80,781.25,-0.02253,0.196365,3.180465,0.013615,-0.0043,0.002866,,,,,,
81,791.0156,-0.02282,0.198819,3.220221,0.013785,-0.00435,0.002902,,,,,,
82,800.7813,-0.0231,0.201274,3.259977,0.013955,-0.00441,0.002938,,,,,,
83,810.5469,-0.02338,0.203728,3.299733,0.014126,-0.00446,0.002974,,,,,,
84,820.3125,-0.02366,0.206183,3.339489,0.014296,-0.00451,0.00301,,,,,,
85,830.0781,-0.02394,0.208638,3.379245,0.014466,-0.00457,0.003045,,,,,,
86,839.8438,-0.02422,0.211092,3.419,0.014636,-0.00462,0.003081,,,,,,
87,849.6094,-0.02451,0.213547,3.458756,0.014806,-0.00468,0.003117,,,,,,
88,859.375,-0.02479,0.216001,3.498512,0.014976,-0.00473,0.003153,,,,,,
89,869.1406,-0.02507,0.218456,3.538268,0.015147,-0.00478,0.003189,,,,,,
90,878.9063,-0.02535,0.22091,3.578024,0.015317,-0.00484,0.003225,,,,,,
91,888.6719,-0.02563,0.223365,3.617779,0.015487,-0.00489,0.00326,,,,,,
92,898.4375,-0.02591,0.225819,3.657535,0.015657,-0.00494,0.003296,,,,,,
93,908.2031,-0.0262,0.228274,3.697291,0.015827,-0.005,0.003332,,,,,,
94,917.9688,-0.02648,0.230729,3.737047,0.015998,-0.00505,0.003368,,,,,,
95,927.7344,-0.02676,0.233183,3.776803,0.016168,-0.00511,0.003404,,,,,,
96,937.5,-0.02704,0.235638,3.816559,0.016338,-0.00516,0.00344,,,,,,
97,947.2656,-0.02732,0.238092,3.856314,0.016508,-0.00521,0.003475,,,,,,
98,957.0313,-0.0276,0.240547,3.89607,0.016678,-0.00527,0.003511,,,,,,
99,966.7969,-0.02789,0.243001,3.935826,0.016849,-0.00532,0.003547,,,,,,
100,976.5625,-0.02817,0.245456,3.975582,0.017019,-0.00537,0.003583,,,,,,
101,986.3281,-0.02845,0.247911,4.015337,0.017189,-0.00543,0.003619,,,,,,
102,996.0938,-0.02873,0.250365,4.055093,0.017359,-0.00548,0.003655,,,,,,
103,1005.859,-0.02901,0.25282,4.094849,0.017529,-0.00554,0.00369,,,,,,
104,1015.625,-0.02929,0.255274,4.134605,0.017699,-0.00559,0.003726,,,,,,
105,1025.391,-0.02958,0.257729,4.174361,0.01787,-0.00564,0.003762,,,,,,
106,1035.156,-0.02986,0.260183,4.214117,0.01804,-0.0057,0.003798,,,,,,
107,1044.922,-0.03014,0.262638,4.253872,0.01821,-0.00575,0.003834,,,,,,
108,1054.688,-0.03042,0.265092,4.293628,0.01838,-0.0058,0.00387,,,,,,
109,1064.453,-0.0307,0.267547,4.333384,0.01855,-0.00586,0.003905,,,,,,
110,1074.219,-0.03098,0.270002,4.37314,0.018721,-0.00591,0.003941,,,,,,
111,1083.984,-0.03127,0.272456,4.412896,0.018891,-0.00597,0.003977,,,,,,
112,1093.75,-0.03155,0.274911,4.452652,0.019061,-0.00602,0.004013,,,,,,
113,1103.516,-0.03183,0.277365,4.492407,0.019231,-0.00607,0.004049,,,,,,
114,1113.281,-0.03211,0.27982,4.532163,0.019401,-0.00613,0.004084,,,,,,
115,1123.047,-0.03239,0.282274,4.571919,0.019572,-0.00618,0.00412,,,,,,
116,1132.813,-0.03267,0.284729,4.611675,0.019742,-0.00623,0.004156,,,,,,
117,1142.578,-0.03296,0.287183,4.651431,0.019912,-0.00629,0.004192,,,,,,
118,1152.344,-0.03324,0.289638,4.691186,0.020082,-0.00634,0.004228,,,,,,
119,1162.109,-0.03352,0.292093,4.730942,0.020252,-0.0064,0.004264,,,,,,
120,1171.875,-0.0338,0.294547,4.770699,0.020422,-0.00645,0.004299,,,,,,
121,1181.641,-0.03408,0.297002,4.810454,0.020593,-0.0065,0.004335,,,,,,
122,1191.406,-0.03436,0.299456,4.85021,0.020763,-0.00656,0.004371,,,,,,
123,1201.172,-0.03465,0.301911,4.889966,0.020933,-0.00661,0.004407,,,,,,
124,1210.938,-0.03493,0.304365,4.929722,0.021103,-0.00666,0.004443,,,,,,
125,1220.703,-0.03521,0.30682,4.969477,0.021273,-0.00672,0.004479,,,,,,
126,1230.469,-0.03549,0.309275,5.009233,0.021444,-0.00677,0.004514,,,,,,
127,1240.234,-0.03577,0.311729,5.048989,0.021614,-0.00683,0.00455,,,,,,
128,1250.0,-0.03605,0.314184,5.088745,0.021784,-0.00688,0.004586,,,,,,
129,1259.766,-0.03634,0.316638,5.1285,0.021954,-0.00693,0.004622,,,,,,
130,1269.531,-0.03662,0.319093,5.168256,0.022124,-0.00699,0.004658,,,,,,
131,1279.297,-0.0369,0.321547,5.208012,0.022295,-0.00704,0.004694,,,,,,
132,1289.063,-0.03718,0.324002,5.247768,0.022465,-0.00709,0.004729,,,,,,
133,1298.828,-0.03746,0.326456,5.287524,0.022635,-0.00715,0.004765,,,,,,
134,1308.594,-0.03774,0.328911,5.32728,0.022805,-0.0072,0.004801,,,,,,
135,1318.359,-0.03803,0.331366,5.367035,0.022975,-0.00726,0.004837,,,,,,
136,1328.125,-0.03831,0.33382,5.406791,0.023145,-0.00731,0.004873,,,,,,
137,1337.891,-0.03859,0.336275,5.446547,0.023316,-0.00736,0.004909,,,,,,
138,1347.656,-0.03887,0.338729,5.486303,0.023486,-0.00742,0.004944,,,,,,
139,1357.422,-0.03915,0.341184,5.526059,0.023656,-0.00747,0.00498,,,,,,
140,1367.188,-0.03943,0.343638,5.565814,0.023826,-0.00752,0.005016,,,,,,
141,1376.953,-0.03972,0.346093,5.60557,0.023996,-0.00758,0.005052,,,,,,
142,1386.719,-0.04,0.348547,5.645326,0.024167,-0.00763,0.005088,,,,,,
143,1396.484,-0.04028,0.351002,5.685082,0.024337,-0.00769,0.005124,,,,,,
144,1406.25,-0.04056,0.353457,5.724838,0.024507,-0.00774,0.005159,,,,,,
145,1416.016,-0.04084,0.355911,5.764594,0.024677,-0.00779,0.005195,,,,,,
146,1425.781,-0.04112,0.358366,5.804349,0.024847,-0.00785,0.005231,,,,,,
147,1435.547,-0.04141,0.36082,5.844105,0.025018,-0.0079,0.005267,,,,,,
148,1445.313,-0.04169,0.363275,5.883861,0.025188,-0.00795,0.005303,,,,,,
149,1455.3,-0.04198,0.365785,5.92452,0.025362,-0.00801,0.005339,,,,,,
150,1465.288,-0.04226,0.368296,5.96518,0.025536,-0.00806,0.005376,,,,,,
151,1475.275,-0.04255,0.370806,6.005839,0.02571,-0.00812,0.005413,,,,,,
152,1485.263,-0.04284,0.373316,6.046498,0.025884,-0.00817,0.005449,,,,,,
153,1495.25,-0.04313,0.375827,6.087158,0.026058,-0.00823,0.005486,,,,,,
154,1505.238,-0.04342,0.378337,6.127817,0.026232,-0.00828,0.005523,,,,,,
155,1515.225,-0.0437,0.380847,6.168477,0.026406,-0.00834,0.005559,,,,,,
156,1525.213,-0.04399,0.383358,6.209136,0.02658,-0.00839,0.005596,,,,,,
157,1535.201,-0.04428,0.385868,6.249795,0.026754,-0.00845,0.005632,,,,,,
158,1545.188,-0.04457,0.388378,6.290455,0.026928,-0.0085,0.005669,,,,,,
159,1555.176,-0.04486,0.390889,6.331114,0.027102,-0.00856,0.005706,,,,,,
160,1565.163,-0.04514,0.393399,6.371773,0.027276,-0.00861,0.005742,,,,,,
161,1575.151,-0.04543,0.395909,6.412433,0.02745,-0.00867,0.005779,,,,,,
162,1585.139,-0.04572,0.39842,6.453092,0.027625,-0.00872,0.005816,,,,,,
163,1595.126,-0.04601,0.40093,6.493752,0.027799,-0.00878,0.005852,,,,,,
164,1605.114,-0.0463,0.40344,6.53441,0.027973,-0.00883,0.005889,,,,,,
165,1615.101,-0.04659,0.405951,6.57507,0.028147,-0.00889,0.005926,,,,,,
166,1625.089,-0.04687,0.408461,6.61573,0.028321,-0.00894,0.005962,,,,,,
167,1635.076,-0.04716,0.410971,6.656389,0.028495,-0.009,0.005999,,,,,,
168,1645.064,-0.04745,0.413482,6.697048,0.028669,-0.00905,0.006036,,,,,,
169,1655.052,-0.04774,0.415992,6.737707,0.028843,-0.00911,0.006072,,,,,,
170,1665.039,-0.04803,0.418502,6.778367,0.029017,-0.00916,0.006109,,,,,,
171,1675.027,-0.04831,0.421013,6.819026,0.029191,-0.00922,0.006145,,,,,,
172,1685.014,-0.0486,0.423523,6.859685,0.029365,-0.00927,0.006182,,,,,,
173,1695.002,-0.04889,0.426033,6.900345,0.029539,-0.00933,0.006219,,,,,,
174,1704.989,-0.04918,0.428544,6.941004,0.029713,-0.00938,0.006255,,,,,,
175,1714.977,-0.04947,0.431054,6.981664,0.029887,-0.00944,0.006292,,,,,,
176,1724.964,-0.04975,0.433564,7.022323,0.030061,-0.00949,0.006329,,,,,,
177,1734.952,-0.05004,0.436075,7.062982,0.030235,-0.00955,0.006365,,,,,,
178,1744.94,-0.05033,0.438585,7.103642,0.030409,-0.0096,0.006402,,,,,,
179,1754.927,-0.05062,0.441096,7.144301,0.030583,-0.00966,0.006439,,,,,,
180,1764.915,-0.05091,0.443606,7.18496,0.030758,-0.00971,0.006475,,,,,,
181,1774.902,-0.05119,0.446116,7.22562,0.030932,-0.00977,0.006512,,,,,,
182,1784.89,-0.05148,0.448627,7.266279,0.031106,-0.00982,0.006549,,,,,,
183,1794.877,-0.05177,0.451137,7.306939,0.03128,-0.00988,0.006585,,,,,,
184,1804.865,-0.05206,0.453647,7.347598,0.031454,-0.00993,0.006622,,,,,,
185,1814.853,-0.05235,0.456158,7.388257,0.031628,-0.00999,0.006658,,,,,,
186,1824.84,-0.05263,0.458668,7.428917,0.031802,-0.01004,0.006695,,,,,,
187,1834.828,-0.05292,0.461178,7.469576,0.031976,-0.0101,0.006732,,,,,,
188,1844.815,-0.05321,0.463689,7.510235,0.03215,-0.01015,0.006768,,,,,,
189,1854.803,-0.0535,0.466199,7.550894,0.032324,-0.01021,0.006805,,,,,,
190,1864.791,-0.05379,0.468709,7.591554,0.032498,-0.01026,0.006842,,,,,,
191,1874.778,-0.05407,0.47122,7.632214,0.032672,-0.01032,0.006878,,,,,,
192,1884.766,-0.05436,0.47373,7.672873,0.032846,-0.01037,0.006915,,,,,,
193,1894.753,-0.05465,0.47624,7.713532,0.03302,-0.01043,0.006952,,,,,,
194,1904.741,-0.05494,0.478751,7.754192,0.033194,-0.01048,0.006988,,,,,,
195,1914.728,-0.05523,0.481261,7.794851,0.033368,-0.01054,0.007025,,,,,,
196,1924.716,-0.05552,0.483771,7.83551,0.033542,-0.01059,0.007062,,,,,,
197,1934.703,-0.0558,0.486282,7.876169,0.033716,-0.01065,0.007098,,,,,,
198,1944.691,-0.05609,0.488792,7.916829,0.033891,-0.0107,0.007135,,,,,,
0,0.0,-4.06057,-5.37259,5.707777,0.910288,-0.14496,0.036241, R425,,,,,
1,9.765625,-3.06458,-6.7325,5.755661,0.270741,-0.37946,0.249423,,,,,,
2,19.53125,-3.67749,-7.09641,5.640739,0.004264,-0.27287,0.287796,,,,,,
3,29.29688,-3.04542,-6.42604,5.861005,-0.03411,0.029846,0.343223,,,,,,
4,39.0625,-2.40378,-6.06212,7.364564,0.202523,0.462605,0.304851,,,,,,
5,48.82813,-2.48039,-5.58328,7.402871,0.31551,0.997693,0.074614,,,,,,
6,58.59375,-2.806,-5.88974,7.594408,0.601174,1.251379,-0.05116,,,,,,
7,68.35938,-3.68707,-6.33985,7.220912,1.731039,3.83728,0.748269,,,,,,
8,78.125,-0.88107,-4.7884,6.138733,3.393861,4.402212,1.070175,,,,,,
9,87.89063,-8.7532,-9.04051,5.602432,3.40452,-1.65216,0.626756,,,,,,
10,97.65625,-10.1227,-6.7325,7.297526,0.916683,-4.00143,-0.43702,,,,,,
11,107.4219,-5.68862,-6.21535,8.848969,-0.07248,-2.55605,-0.71842,,,,,,
12,117.1875,-6.78038,-7.00065,10.90798,0.149228,-1.40061,-0.29846,,,,,,
13,126.9531,-2.50912,-6.78996,6.368576,1.157579,-0.05756,-0.18334,,,,,,
14,136.7188,-2.806,-6.32069,7.383718,1.647898,1.178898,-0.44555,,,,,,
15,146.4844,-5.43005,-5.88974,8.743625,1.347311,0.686447,-0.60544,,,,,,
16,156.25,-5.02782,-6.33027,7.718906,1.057384,0.230237,-0.46047,,,,,,
17,166.0156,-5.2864,-6.359,8.207323,0.893233,0.153491,-0.74187,,,,,,
18,175.7813,-5.5737,-6.68461,8.24563,1.07657,0.31551,-0.87192,,,,,,
19,185.5469,-5.8227,-6.74207,8.101978,1.637239,0.466869,-0.7973,,,,,,
20,195.3125,-6.33985,-6.42604,8.45632,2.089185,-0.03198,-0.11299,,,,,,
21,205.0781,-6.18662,-5.95677,9.241618,2.208568,0.100196,-0.09167,,,,,,
22,214.8438,-6.39731,-5.74608,9.414001,2.001781,0.296323,-0.09167,,,,,,
23,224.6094,-6.11958,-5.77481,8.820239,1.628712,0.326169,0.110855,,,,,,
24,234.375,-6.12916,-5.54497,8.599972,1.10002,0.238764,0.059691,,,,,,
25,244.1406,-5.99508,-5.50666,8.446743,0.185469,0.494583,0.112987,,,,,,
26,253.9063,-6.7325,-5.40132,8.647856,-0.57772,0.443419,0.225973,,,,,,
27,263.6719,-7.17303,-5.35344,8.073248,-1.24498,0.387992,0.394387,,,,,,
28,273.4375,-7.39329,-5.0374,7.240066,-1.89306,0.76106,0.735479,,,,,,
29,283.2031,-7.85298,-3.62961,5.324704,-2.47078,1.279093,1.259907,,,,,,
30,292.9688,-7.8051,-2.59532,4.596867,-3.1018,1.637239,1.637239,,,,,,
31,302.7344,-6.47392,-0.87149,3.849876,-3.72003,1.829103,0.462605,,,,,,
32,312.5,-6.02381,0.775721,4.328716,-4.94796,2.84385,-1.43472,,,,,,
33,322.2656,-6.87615,-3.78284,3.667917,-6.47434,3.598515,-3.13591,,,,,,
34,332.0313,-7.88171,-7.60398,2.403778,-6.14391,3.447156,-3.25316,,,,,,
35,341.7969,-9.14585,-10.2568,2.06859,-4.34679,3.155097,-2.7266,,,,,,
36,351.5625,-10.2185,-10.5249,2.882619,-2.51981,2.952573,-1.88879,,,,,,
37,361.3281,-10.2376,-8.92558,3.744531,-0.19826,2.411091,-1.37503,,,,,,
38,371.0938,-8.59997,-7.22091,4.395754,1.632976,2.05934,-1.16824,,,,,,
39,380.8594,-7.20176,-6.51223,3.983952,2.551791,1.91864,-1.47948,,,,,,
40,390.625,-5.99508,-5.85143,3.754108,2.85451,2.287445,-1.5477,,,,,,
41,400.3906,-5.54497,-5.2864,3.878607,2.8204,2.502759,-1.33665,,,,,,
42,410.1563,-4.11803,-4.80756,4.769249,3.20626,2.794819,-1.15971,,,,,,
43,419.9219,-2.30801,-3.40934,5.707777,3.647547,2.564582,-1.58394,,,,,,
44,429.6875,-1.63763,-3.39977,6.426037,3.93108,2.630668,-1.3132,,,,,,
45,439.4531,-0.59376,-4.76925,6.253654,4.182634,2.850246,-1.3196,,,,,,
46,449.2188,-1.15879,-3.12204,5.669469,4.131471,2.956837,-1.36863,,,,,,
47,458.9844,-1.71425,-2.14521,5.200206,3.61557,2.926991,-1.35158,,,,,,
48,468.75,-1.92494,-1.4461,5.066131,3.035714,2.865169,-1.17037,,,,,,
49,478.5156,-1.64721,-1.12049,5.410896,3.061296,2.856641,-0.55854,,,,,,
50,488.2813,-0.72784,0.277727,6.071695,3.08901,2.895014,0.055427,,,,,,
51,498.0469,-0.05746,0.105345,6.263231,3.06556,3.078351,0.29206,,,,,,
52,507.8125,-0.02873,0.21069,6.722918,2.511286,3.06556,-0.03837,,,,,,
53,517.5781,-0.02873,0.306458,7.086837,2.353531,3.067692,-0.40078,,,,,,
54,527.3438,0.641646,1.915361,6.742072,4.033407,2.99521,-1.44324,,,,,,
55,537.1094,0.134075,4.003105,8.034941,5.832664,2.976023,-2.24055,,,,,,
56,546.875,0.363919,1.11091,9.758766,6.216393,0.648074,-2.28958,,,,,,
57,556.6406,1.752556,-0.21069,9.701304,3.988639,-1.58181,-2.27892,,,,,,
58,566.4063,-0.89064,2.260126,12.81377,2.775632,-0.59478,-1.15758,,,,,,
59,576.1719,-0.58419,2.03986,13.16811,2.990946,0.722688,0.880442,,,,,,
60,585.9375,0.076614,2.231396,11.59751,3.270215,0.249423,2.560318,,,,,,
61,595.7031,-0.29688,2.346318,11.58794,2.786291,0.332564,2.969628,,,,,,
62,605.4688,-2.07817,1.810016,13.07234,1.707589,0.332564,2.539,,,,,,
63,615.2344,-2.70066,1.541866,12.20085,1.910112,-0.03198,2.212831,,,,,,
64,625.0,-3.07416,1.292869,12.68927,1.590339,-0.06822,1.963408,,,,,,
65,634.7656,-3.32315,1.493982,12.95742,1.507198,0.025582,1.999649,,,,,,
66,644.5313,-2.87304,1.781286,12.31577,-1.54557,1.413398,1.526384,,,,,,
67,654.2969,-0.60334,2.528277,14.46098,-3.75414,1.897322,2.370586,,,,,,
68,664.0625,-1.65679,1.848324,12.54562,-3.82023,1.294016,3.613438,,,,,,
69,673.8281,-2.81558,1.225831,12.88081,-3.49192,0.758929,3.764797,,,,,,
70,683.5938,-3.57215,0.670376,12.99573,-3.11886,0.055427,3.427969,,,,,,
71,693.3594,-5.46836,-2.05901,12.11466,-2.60722,-0.65873,2.579504,,,,,,
72,703.125,-5.74608,-2.37505,11.08037,-2.16806,-1.08083,1.907981,,,,,,
73,712.8906,-5.76524,-2.26013,10.25676,-1.82271,-1.32386,1.366498,,,,,,
74,722.6563,-5.60243,-2.06859,9.873688,-1.62658,-1.37076,1.055252,,,,,,
75,732.4219,-5.22894,-1.64721,9.500192,-1.62445,-1.20235,1.155447,,,,,,
76,742.1875,-5.15232,-1.54187,9.586383,-1.52425,-0.98064,1.082965,,,,,,
77,751.9531,-5.14275,-1.30245,9.691728,-1.60953,-0.80796,1.104284,,,,,,
78,761.7188,-4.98952,-1.21625,9.662997,-1.64577,-1.17463,1.044593,,,,,,
79,771.4844,-4.8746,-0.92895,9.203311,-1.65643,-1.32386,1.055252,,,,,,
80,781.25,-4.80756,-0.93853,8.801085,-1.60313,-1.48588,1.055252,,,,,,
81,791.0156,-4.92248,-0.9098,8.360552,-1.29615,-1.73744,1.155447,,,,,,
82,800.7813,-4.97994,-0.96726,7.805097,-0.99343,-1.89945,1.125602,,,,,,
83,810.5469,-5.53539,-1.37906,7.211335,-0.68645,-1.73744,1.296148,,,,,,
84,820.3125,-5.72693,-1.41737,7.307103,-0.50311,-1.45177,1.251379,,,,,,
85,830.0781,-5.86101,-1.1971,7.651868,-0.7035,-0.90389,1.306807,,,,,,
86,839.8438,-5.66947,-0.76615,7.671022,-1.23219,-0.41144,1.590339,,,,,,
87,849.6094,-4.7884,-0.18196,8.015787,-1.38568,0.144964,2.097713,,,,,,
88,859.375,-4.35745,0.038307,7.565677,-1.86748,0.599042,3.067692,,,,,,
89,869.1406,-4.07014,0.095768,7.058106,-2.36845,1.281225,4.267908,,,,,,
90,878.9063,-4.82671,0.497994,6.780379,-2.48357,1.899453,5.152614,,,,,,
91,888.6719,-2.19309,-0.04788,6.8953,-2.22775,2.249072,5.331686,,,,,,
92,898.4375,-3.32315,1.513135,6.607996,4.28283,-4.79447,4.811522,,,,,,
93,908.2031,-16.5008,-2.07817,12.69885,2.735128,-6.96893,3.359751,,,,,,
94,917.9688,-3.15077,2.75812,10.27591,2.457991,-7.35265,2.782027,,,,,,
95,927.7344,-4.53941,0.009577,7.94875,2.116899,-5.88809,2.747918,,,,,,
96,937.5,-6.22492,0.316035,8.264784,2.381245,-7.09044,2.711678,,,,,,
97,947.2656,-11.9231,-0.31604,13.95341,0.701369,-9.14978,2.579504,,,,,,
98,957.0313,-4.65433,-3.92649,9.279925,-0.24729,-7.91332,1.304675,,,,,,
99,966.7969,-6.39731,0.699107,10.59195,-0.37946,-4.46404,0.564933,,,,,,
100,976.5625,-1.36948,0.009577,18.28212,-0.05543,-2.79482,0.006395,,,,,,
101,986.3281,-0.89064,-1.18752,9.911995,0.147096,-3.8586,0.100196,,,,,,
102,996.0938,-1.49398,0.411803,9.260772,0.31551,-4.30841,0.008527,,,,,,
103,1005.859,-0.56503,1.867477,7.79552,-0.24516,-7.06273,-0.40505,,,,,,
104,1015.625,1.608904,-1.83875,25.08166,-0.40078,-0.36881,0.394387,,,,,,
105,1025.391,2.5187,0.593762,15.70596,1.204479,2.229886,0.45621,,,,,,
106,1035.156,0.995988,-0.23942,4.10845,-0.76106,3.308588,0.822883,,,,,,
107,1044.922,3.639186,1.043872,12.45943,0.181205,0.219578,-0.02345,,,,,,
108,1054.688,-1.30245,0.181959,3.552995,-0.24942,-0.79943,-0.02558,,,,,,
109,1064.453,-0.85234,0.861913,7.268796,0.270741,-0.71842,0.072482,,,,,,
110,1074.219,1.11091,-0.5363,16.59661,0.100196,0.575592,0.061823,,,,,,
111,1083.984,0.909797,0.670376,9.787497,-0.34322,0.871915,-0.02345,,,,,,
112,1093.75,-1.62806,-0.04788,9.902418,0.232369,-0.77812,0.027714,,,,,,
113,1103.516,-0.26815,0.02873,8.609549,-0.24729,-0.15349,-0.02558,,,,,,
114,1113.281,0.842759,0.469264,11.12825,-0.0533,0.79517,-0.02345,,,,,,
115,1123.047,0.229843,0.02873,11.70286,0.2345,-0.45195,-0.04051,,,,,,
116,1132.813,0.076614,0.296881,10.11311,0.057559,-0.12365,-0.02345,,,,,,
117,1142.578,0.679953,0.296881,11.30063,-0.10872,0.417837,-0.07888,,,,,,
118,1152.344,-0.40223,0.134075,9.557652,0.151359,-0.32404,0.121514,,,,,,
119,1162.109,-0.92895,0.047884,9.165004,-0.01066,0.119382,0.089537,,,,,,
120,1171.875,0.201113,0.23942,10.25676,-0.08101,0.260082,0.057559,,,,,,
121,1181.641,-0.92895,0.019154,9.548076,0.017055,-0.26435,-0.03837,,,,,,
122,1191.406,0.095768,0.287304,9.816227,-0.10872,0.383728,0.057559,,,,,,
123,1201.172,0.316035,0.306458,10.37168,0.034109,-0.07888,0.014923,,,,,,
124,1210.938,-0.14365,0.191536,9.65342,-0.00426,-0.03411,-0.0533,,,,,,
125,1220.703,0.296881,0.325611,10.41957,-0.05116,0.16415,0.053296,,,,,,
126,1230.469,-0.54588,0.067038,9.758766,0.055427,-0.21745,0.021318,,,,,,
127,1240.234,-0.21069,0.191536,9.65342,-0.09806,0.215314,0.044768,,,,,,
128,1250.0,0.21069,0.316035,10.3621,-0.06396,-0.13644,-0.04051,,,,,,
129,1259.766,-0.25857,0.181959,9.691728,0.134305,0.078877,-0.01279,,,,,,
130,1269.531,0.143652,0.296881,10.27591,0.017055,0.100196,0.014923,,,,,,
131,1279.297,-0.36392,0.153229,9.844957,0.091668,-0.13217,0.017055,,,,,,
132,1289.063,-0.249,0.181959,9.739613,-0.04477,0.189732,-0.03837,,,,,,
133,1298.828,-0.32561,0.124498,9.854534,-0.00853,-0.06182,0.021318,,,,,,
134,1308.594,-0.26815,0.191536,9.797073,-0.05543,0.044768,-0.07248,,,,,,
135,1318.359,0.0,0.268151,10.14184,-0.05756,0.078877,-0.09806,,,,,,
136,1328.125,-0.29688,0.143652,9.844957,-0.12365,-0.13217,0.004264,,,,,,
137,1337.891,-0.00958,0.258574,10.11311,0.012791,0.130041,0.002132,,,,,,
138,1347.656,-0.29688,0.172383,9.883265,-0.01066,-0.07461,-0.02558,,,,,,
139,1357.422,-0.26815,0.181959,9.80665,-0.05969,-0.03198,-0.03624,,,,,,
140,1367.188,-0.06704,0.229843,10.06522,0.055427,0.010659,-0.02345,,,,,,
141,1376.953,-0.25857,0.181959,9.844957,-0.07035,0.014923,-0.01279,,,,,,
142,1386.719,-0.09577,0.220267,10.04607,-0.01066,-0.02132,0.078877,,,,,,
143,1396.484,-0.26815,0.181959,9.902418,0.081009,0.095932,-0.03837,,,,,,
144,1406.25,-0.26815,0.201113,9.854534,0.021318,-0.05969,0.008527,,,,,,
145,1416.016,-0.2873,0.181959,9.911995,0.042636,0.0,-0.04903,,,,,,
146,1425.781,-0.26815,0.181959,9.873688,0.078877,0.049032,0.083141,,,,,,
147,1435.547,-0.13408,0.220267,10.01734,-0.05969,-0.03624,-0.08741,,,,,,
148,1445.313,-0.27773,0.162806,9.892841,-0.07675,0.038373,0.0,,,,,,
149,1455.078,-0.1245,0.220267,10.00776,-0.03411,0.012791,-0.03837,,,,,,
150,1464.844,-0.26815,0.21069,9.921572,0.085273,-0.00213,-0.0469,,,,,,
151,1474.609,-0.26815,0.201113,9.873688,-0.03624,0.008527,0.021318,,,,,,
152,1484.375,-0.17238,0.201113,9.988609,0.002132,0.042636,-0.04477,,,,,,
153,1494.141,-0.26815,0.220267,9.902418,-0.04477,-0.01066,-0.05756,,,,,,
154,1503.906,-0.20111,0.201113,9.969456,0.044768,0.087405,0.02345,,,,,,
155,1513.672,-0.25857,0.172383,9.921572,-0.05116,-0.04264,-0.11725,,,,,,
156,1523.438,-0.23942,0.191536,9.911995,-0.05756,-0.08101,-0.01706,,,,,,
157,1533.203,-0.18196,0.201113,9.959879,-0.05116,0.002132,0.074614,,,,,,
158,1542.969,-0.249,0.23942,9.911995,0.121514,-0.07461,-0.03411,,,,,,
159,1552.734,-0.20111,0.220267,9.988609,0.051164,0.038373,0.078877,,,,,,
160,1562.5,-0.25857,0.21069,9.931149,-0.05756,-0.03411,-0.04903,,,,,,
161,1572.266,-0.23942,0.21069,9.902418,-0.0469,-0.03198,0.012791,,,,,,
162,1582.031,-0.23942,0.23942,9.911995,-0.01492,0.004264,0.055427,,,,,,
163,1591.797,-0.249,0.201113,9.921572,-0.15989,-0.01919,0.036241,,,,,,
164,1601.563,-0.21069,0.229843,9.969456,0.07035,0.081009,0.074614,,,,,,
165,1611.328,-0.23942,0.201113,9.911995,-0.03624,-0.04051,-0.08527,,,,,,
166,1621.094,-0.22027,0.201113,9.959879,-0.09593,-0.01492,-0.03411,,,,,,
167,1630.859,-0.249,0.191536,9.931149,-0.05756,-0.03624,-0.02345,,,,,,
168,1640.625,-0.249,0.21069,9.902418,-0.02345,0.036241,-0.03411,,,,,,
169,1650.391,-0.22027,0.181959,9.940725,0.1407,-0.06609,0.019186,,,,,,
170,1660.156,-0.21069,0.191536,9.902418,-0.05543,-0.03198,0.014923,,,,,,
171,1669.922,-0.22984,0.201113,9.940725,-0.02345,0.017055,-0.0469,,,,,,
172,1679.688,-0.23942,0.191536,9.931149,0.085273,-0.03837,-0.01492,,,,,,
173,1689.453,-0.23942,0.201113,9.911995,-0.12151,-0.03198,-0.13004,,,,,,
174,1699.219,-0.22984,0.21069,9.959879,-0.03624,-0.05756,0.089537,,,,,,
175,1708.984,-0.249,0.220267,9.931149,-0.0064,0.078877,0.051164,,,,,,
176,1718.75,-0.23942,0.191536,9.950302,-0.12791,0.010659,-0.03624,,,,,,
177,1728.516,-0.22984,0.21069,9.950302,-0.02558,0.057559,0.098064,,,,,,
178,1738.281,-0.22984,0.201113,9.931149,-0.08101,0.0,0.038373,,,,,,
179,1748.047,-0.23942,0.21069,9.940725,-0.00213,-0.05116,-0.07248,,,,,,
180,1757.813,-0.22027,0.21069,9.940725,0.076746,0.008527,0.040505,,,,,,
181,1767.578,-0.22027,0.201113,9.921572,0.002132,0.081009,0.025582,,,,,,
182,1777.344,-0.249,0.191536,9.921572,-0.06182,-0.04903,-0.03198,,,,,,
183,1787.109,-0.22984,0.21069,9.931149,-0.12365,-0.01919,-0.04264,,,,,,
184,1796.875,-0.23942,0.191536,9.940725,0.027714,-0.08101,-0.08741,,,,,,
185,1806.641,-0.22984,0.21069,9.911995,0.049032,0.083141,0.110855,,,,,,
186,1816.406,-0.23942,0.229843,9.969456,-0.11725,0.008527,-0.07675,,,,,,
187,1826.172,-0.22027,0.201113,9.911995,-0.04477,-0.01279,0.038373,,,,,,
188,1835.938,-0.22984,0.201113,9.921572,0.006395,-0.0938,-0.10659,,,,,,
189,1845.703,-0.22984,0.191536,9.940725,0.083141,0.078877,-0.03198,,,,,,
190,1855.469,-0.22984,0.191536,9.931149,0.021318,-0.01492,-0.01492,,,,,,
191,1865.234,-0.22984,0.21069,9.921572,-0.00853,0.038373,-0.0064,,,,,,
192,1875.0,-0.23942,0.201113,9.931149,0.025582,-0.00213,-0.0533,,,,,,
193,1884.766,-0.22027,0.191536,9.931149,-0.0064,0.010659,0.057559,,,,,,
194,1894.531,-0.22027,0.191536,9.950302,-0.02558,0.0,0.021318,,,,,,
195,1904.297,-0.25857,0.191536,9.921572,-0.03411,-0.08101,-0.03624,,,,,,
196,1914.063,-0.22984,0.191536,9.950302,-0.06182,-0.07461,-0.02558,,,,,,
197,1923.828,-0.23942,0.191536,9.931149,-0.07248,-0.08314,-0.01706,,,,,,
198,1933.594,-0.23942,0.201113,9.959879,0.036241,0.076746,0.025582,,,,,,
0,0.0,1.35033,-0.62249,6.253654,-0.42104,1.168238,0.851663, R445,,,,,
1,9.765625,2.576161,0.344765,6.569689,-0.90176,1.554098,0.812224,,,,,,
2,19.53125,3.265691,0.497994,7.441179,-1.02754,1.522121,0.463671,,,,,,
3,29.29688,3.533842,0.890643,7.757213,-1.02754,1.522121,0.463671,,,,,,
4,39.0625,3.811569,1.283292,8.073248,-0.65021,1.589273,0.33363,,,,,,
5,48.82813,3.016694,1.532289,8.734048,-0.23237,1.588207,0.453012,,,,,,
6,58.59375,1.762132,1.187524,10.16099,0.631019,0.891102,0.753599,,,,,,
7,68.35938,1.82917,0.68953,9.921572,1.265236,0.0469,1.107482,,,,,,
8,78.125,2.106897,0.45011,10.03649,1.362234,-0.66939,1.565823,,,,,,
9,87.89063,2.365471,0.45011,10.75475,1.285489,-1.46243,2.109438,,,,,,
10,97.65625,3.074155,-0.33519,11.12825,1.281225,-2.87583,2.553923,,,,,,
11,107.4219,2.844311,-1.78129,9.126697,1.233259,-3.96839,2.513418,,,,,,
12,117.1875,2.442086,-3.33273,8.839393,0.823949,-3.41198,2.019901,,,,,,
13,126.9531,2.691083,-2.37505,8.676586,0.50311,-2.51129,1.766214,,,,,,
14,136.7188,3.974375,0.421379,8.542511,-0.06289,-2.04122,1.441112,,,,,,
15,146.4844,5.200206,0.852336,8.169016,0.01812,-1.75129,1.272698,,,,,,
16,156.25,5.544971,0.545878,8.341398,0.186534,-1.52852,1.335587,,,,,,
17,166.0156,5.420473,0.670376,6.38773,0.904958,-0.36134,1.557296,,,,,,
18,175.7813,2.557007,-0.5363,8.504204,1.209809,-0.0437,1.949551,,,,,,
19,185.5469,4.003105,-1.81002,7.441179,-0.08741,-0.92095,1.34518,,,,,,
20,195.3125,4.453215,-1.87705,7.307103,-0.19719,-0.56493,0.166282,,,,,,
21,205.0781,3.696647,-1.0343,7.565677,0.157755,0.091668,-0.36241,,,,,,
22,214.8438,3.840299,0.363919,9.021352,0.418903,0.798367,-0.36028,,,,,,
23,224.6094,3.830723,0.536301,8.935161,0.592647,0.976374,0.513769,,,,,,
24,234.375,5.085284,-0.9481,9.069236,0.545746,1.026472,0.505242,,,,,,
25,244.1406,4.616021,-0.69911,9.461884,0.540417,0.74294,-0.17161,,,,,,
26,253.9063,4.232948,0.038307,9.394847,0.55001,0.788774,-0.45301,,,,,,
27,263.6719,4.098873,0.191536,9.193734,0.408244,1.15225,-0.30272,,,,,,
28,273.4375,3.945644,-0.01915,9.442731,0.296323,1.384618,-0.09913,,,,,,
29,283.2031,4.003105,0.095768,9.538499,0.200391,1.376091,-0.05863,,,,,,
30,292.9688,3.974375,0.440533,9.35654,0.033043,1.310005,-0.06289,,,,,,
31,302.7344,3.782839,0.574608,9.193734,0.033043,1.310005,-0.06289,,,,,,
32,312.5,3.600879,0.708684,9.040505,-0.27074,1.192754,-0.01599,,,,,,
33,322.2656,3.246537,0.6608,9.040505,-0.58199,1.001956,0.043702,,,,,,
34,332.0313,3.217807,0.507571,9.682151,-0.80903,0.669392,0.024516,,,,,,
35,341.7969,3.811569,0.105345,9.883265,-1.06911,0.102327,-0.04903,,,,,,
36,351.5625,2.403778,-0.7853,9.193734,-0.96465,-0.38479,0.150293,,,,,,
37,361.3281,2.75812,-0.26815,9.222465,-0.43702,-0.54575,0.398651,,,,,,
38,371.0938,3.65834,0.009577,8.868123,0.069284,-0.44022,0.430628,,,,,,
39,380.8594,3.86903,-0.3735,8.580818,0.440221,-0.1002,0.460474,,,,,,
40,390.625,3.811569,0.632069,8.734048,0.457276,0.215314,0.564933,,,,,,
41,400.3906,4.750096,1.733402,8.647856,-0.23024,0.326169,0.822883,,,,,,
42,410.1563,4.539406,1.666364,8.2169,-1.24285,0.377332,1.194886,,,,,,
43,419.9219,3.035848,0.746991,7.776367,-1.87067,0.40398,1.65003,,,,,,
44,429.6875,2.106897,-1.74298,7.096414,-1.37822,0.642744,1.903717,,,,,,
45,439.4531,2.087744,-1.70467,9.270349,-0.44768,0.76106,1.88986,,,,,,
46,449.2188,2.154781,-1.71425,9.921572,-0.45834,0.2345,1.849356,,,,,,
47,458.9844,3.007117,-1.77171,11.12825,-1.02541,-0.46794,1.867476,,,,,,
48,468.75,3.246537,-2.1069,10.72602,-1.4539,-1.53811,1.659623,,,,,,
49,478.5156,3.112462,-3.03585,10.21845,-1.34838,-2.13822,1.408068,,,,,,
50,488.2813,0.248997,-3.80199,10.1993,-0.84207,-2.80761,1.098954,,,,,,
51,498.0469,1.953668,-4.16591,10.27591,-0.25369,-3.59105,0.97744,,,,,,
52,507.8125,4.232948,-3.75411,8.848969,0.410376,-4.09203,0.864454,,,,,,
53,517.5781,4.520253,-1.11091,6.272808,0.381596,-3.77226,0.590515,,,,,,
54,527.3438,3.754108,-1.26414,7.987057,-0.39545,-2.88116,0.686447,,,,,,
55,537.1094,3.811569,-1.01514,7.536947,-0.85806,-3.12099,1.318532,,,,,,
56,546.875,4.34787,-1.01514,6.560112,-1.4539,-3.64968,1.872805,,,,,,
57,556.6406,4.510676,-2.32716,6.320692,-2.14142,-3.60491,1.705458,,,,,,
58,566.4063,5.24809,-2.72939,6.129156,-2.59016,-3.45035,1.486946,,,,,,
59,576.1719,6.234501,-3.19865,7.469909,-2.59016,-3.45035,1.486946,,,,,,
60,585.9375,7.230489,-3.66792,8.801085,-2.82999,-3.8085,1.136261,,,,,,
61,595.7031,7.939173,-4.16591,6.770802,-2.83959,-5.45107,-0.40505,,,,,,
62,605.4688,6.59842,-3.81157,4.989516,-2.51022,-5.71009,-1.05845,,,,,,
63,615.2344,6.885724,-3.91691,4.778826,-2.48251,-5.6845,-0.87511,,,,,,
64,625.0,7.412448,-3.62003,3.907337,-2.62534,-5.60243,-0.98703,,,,,,
65,634.7656,7.613561,-2.75812,3.371036,-2.77776,-4.82218,-1.00302,,,,,,
66,644.5313,7.307103,-2.67193,3.438073,-2.79162,-3.6742,-0.78771,,,,,,
67,654.2969,7.000646,-2.81558,3.361459,-2.54966,-2.65945,-0.78131,,,,,,
68,664.0625,7.307103,-3.35188,3.20823,-2.18725,-1.86215,-0.88044,,,,,,
69,673.8281,6.081272,-4.51068,3.246537,-1.82377,-1.17037,-0.83461,,,,,,
70,683.5938,4.654328,-3.75411,3.514688,-1.43472,-0.93694,-1.06911,,,,,,
71,693.3594,6.971915,-2.69108,3.035848,-1.00729,-0.49352,-2.0636,,,,,,
72,703.125,8.571241,-2.98796,4.261679,-0.39759,-0.20146,-2.16806,,,,,,
73,712.8906,8.025364,-2.87304,4.510676,-0.21212,0.035175,-2.27039,,,,,,
74,722.6563,8.523357,-2.57616,3.89776,-0.17374,0.198259,-2.34181,,,,,,
75,732.4219,8.360552,-2.27928,3.294421,-0.23237,0.228105,-2.06254,,,,,,
76,742.1875,7.575254,-2.09732,3.045424,-0.29419,0.377332,-1.6948,,,,,,
77,751.9531,7.651868,-1.53229,3.150769,-0.24836,0.570262,-1.40167,,,,,,
78,761.7188,9.030929,-0.96726,3.371036,-0.10872,0.799433,-1.14585,,,,,,
79,771.4844,9.576806,-0.7853,3.763685,0.027714,1.117075,-0.78025,,,,,,
80,781.25,9.126697,-1.29287,4.165911,0.059691,1.223666,-0.35601,,,,,,
81,791.0156,8.00621,-1.84832,4.13718,0.085273,1.235391,-0.0437,,,,,,
82,800.7813,7.94875,-1.55144,3.936067,0.182271,1.174634,0.014923,,,,,,
83,810.5469,8.609549,-1.34075,4.165911,0.31551,1.149052,-0.07461,,,,,,
84,820.3125,9.184157,-1.33118,4.692635,0.308048,1.460298,-0.02025,,,,,,
85,830.0781,9.701304,-1.41737,5.439626,0.248357,1.946353,0.130041,,,,,,
86,839.8438,9.739613,-1.71425,5.659893,0.205721,2.89608,0.262214,,,,,,
87,849.6094,9.77792,-2.02071,5.889736,0.205721,2.89608,0.262214,,,,,,
88,859.375,9.212888,-2.6432,6.483498,0.302719,3.981178,0.231303,,,,,,
89,869.1406,7.613561,-1.35991,7.000646,0.280335,4.9842,0.086339,,,,,,
90,878.9063,4.702212,-0.04788,4.836287,0.407178,4.631383,0.213182,,,,,,
91,888.6719,5.707777,0.47884,8.887277,0.962518,2.732996,0.232369,,,,,,
92,898.4375,10.37168,-1.52271,2.595315,0.800499,2.737259,0.058625,,,,,,
93,908.2031,6.86657,-1.35033,6.646304,1.430452,1.821642,0.489253,,,,,,
94,917.9688,4.759673,-0.17238,7.489063,0.820751,2.590164,0.71416,,,,,,
95,927.7344,3.026271,-1.56102,7.632715,-0.26115,2.94298,0.769588,,,,,,
96,937.5,2.461239,-0.48842,8.427589,-0.58945,3.180678,0.520165,,,,,,
97,947.2656,4.52983,-0.13408,5.640739,-1.14372,3.104999,0.054361,,,,,,
98,957.0313,7.086837,-2.40378,0.507571,-0.27181,1.670282,-0.11299,,,,,,
99,966.7969,5.612009,-2.48039,6.138733,1.306807,0.114052,0.278203,,,,,,
100,976.5625,5.679046,-1.89621,7.268796,1.049922,0.741874,0.874047,,,,,,
101,986.3281,5.93762,-1.3216,7.460332,0.919881,0.965715,1.158645,,,,,,
102,996.0938,5.93762,-0.67995,7.814674,0.926277,0.880442,1.453902,,,,,,
103,1005.859,4.845864,-0.92895,7.259219,0.798367,0.635283,1.588207,,,,,,
104,1015.625,3.86903,-2.05901,6.751648,0.751467,0.281401,1.484814,,,,,,
105,1025.391,4.022259,-1.68552,7.173028,0.867652,-0.06396,1.381421,,,,,,
106,1035.156,0.785298,-2.50912,7.584831,1.094691,-0.34642,1.127734,,,,,,
107,1044.922,1.522712,-2.6432,7.422025,1.315334,-0.62782,0.302719,,,,,,
108,1054.688,5.995081,-1.95367,7.757213,1.225798,-0.7973,-0.0064,,,,,,
109,1064.453,7.450756,-0.34477,8.331821,1.082965,-0.66833,0.360278,,,,,,
110,1074.219,6.904877,-2.42293,8.513781,0.716292,-0.45195,0.530824,,,,,,
111,1083.984,7.134721,-2.806,8.283937,0.469001,-0.4221,0.814356,,,,,,
112,1093.75,7.220912,-2.29843,8.073248,0.2345,-0.47007,0.875113,,,,,,
113,1103.516,7.939173,-2.44209,8.121132,-0.0906,-0.48712,0.849531,,,,,,
114,1113.281,7.34541,-2.48997,7.97748,-0.19506,-0.30805,0.969979,,,,,,
115,1123.047,6.751648,-2.52828,7.824251,-0.19506,-0.30805,0.969979,,,,,,
116,1132.813,5.90889,-2.00155,7.920019,-0.09487,-0.29632,0.798367,,,,,,
117,1142.578,5.774814,-1.39821,8.073248,-0.03091,-0.39119,0.705633,,,,,,
118,1152.344,4.750096,-1.99198,8.801085,0.067152,-0.5692,0.855927,,,,,,
119,1162.109,6.368576,0.402226,6.473921,0.065021,-1.04459,1.015813,,,,,,
120,1171.875,6.933608,-2.25055,7.402871,-0.91988,-0.40185,0.708831,,,,,,
121,1181.641,6.579266,-4.59687,6.445191,-0.51164,0.418903,0.476462,,,,,,
122,1191.406,6.071695,-1.6951,7.393294,0.235566,1.135195,0.266478,,,,,,
123,1201.172,5.736507,-1.66636,7.546524,0.340026,1.266302,-0.00959,,,,,,
124,1210.938,6.014235,-2.16436,7.709329,0.296323,1.349443,-0.07355,,,,,,
125,1220.703,6.062119,-2.14521,7.565677,0.198259,1.52745,0.00533,,,,,,
126,1230.469,5.45878,-1.90578,7.776367,0.056493,1.529582,0.020252,,,,,,
127,1240.234,6.014235,-2.18351,7.872135,-0.10126,1.373959,-0.01706,,,,,,
128,1250.0,5.966351,-2.48039,7.757213,-0.16522,1.327059,0.089537,,,,,,
129,1259.766,6.062119,-2.00155,7.929595,-0.22704,1.294016,0.237698,,,,,,
130,1269.531,6.330269,-1.56102,7.814674,-0.36881,1.221534,0.645942,,,,,,
131,1279.297,6.20577,-2.02071,7.776367,-0.57986,1.090427,1.173568,,,,,,
132,1289.063,5.669469,-2.29843,7.728483,-0.70563,1.012615,1.468825,,,,,,
133,1298.828,6.339846,-3.04542,7.010222,-0.77918,0.984902,1.880267,,,,,,
134,1308.594,4.817133,-3.40934,8.044518,-0.36561,1.059515,2.454793,,,,,,
135,1318.359,3.782839,-2.56658,8.714894,-0.19826,1.056318,2.115833,,,,,,
136,1328.125,3.332729,-2.52828,8.283937,-0.09273,0.796236,2.097713,,,,,,
137,1337.891,1.072602,-2.68151,8.188169,0.002132,0.434892,2.316225,,,,,,
138,1347.656,0.766145,-3.44765,7.967903,0.01812,0.163084,2.138217,,,,,,
139,1357.422,0.632069,-3.91691,9.442731,0.136437,0.238764,1.677744,,,,,,
140,1367.188,1.072602,-4.68306,9.107543,0.447683,0.061823,0.872981,,,,,,
141,1376.953,3.409343,-5.08528,3.265691,0.545746,0.133239,0.45088,,,,,,
142,1386.719,3.773262,-4.73094,5.353435,-0.08527,1.126668,0.289928,,,,,,
143,1396.484,4.146757,-4.36702,7.431602,-0.08527,1.126668,0.289928,,,,,,
144,1406.25,2.978387,-2.46124,9.835381,-0.46047,1.284423,0.212116,,,,,,
145,1416.016,3.390189,-3.06458,8.667009,-0.56387,1.181029,0.375201,,,,,,
146,1425.781,3.438073,-3.76369,8.398859,-0.41571,1.307873,0.382662,,,,,,
147,1435.547,3.265691,-3.52427,8.293514,-0.11086,1.448573,0.235566,,,,,,
148,1445.313,3.217807,-3.28485,7.94875,0.118316,1.547703,0.062889,,,,,,
149,1455.078,2.844311,-3.4668,7.546524,0.391189,1.571153,-0.02452,,,,,,
150,1464.844,3.265691,-4.23295,7.067683,0.674722,1.525319,-0.22384,,,,,,
151,1474.609,4.213795,-4.46279,6.636727,0.675788,1.518923,-0.35388,,,,,,
152,1484.375,4.960786,-4.71179,6.406884,0.528692,1.573285,-0.29739,,,,,,
153,1494.141,5.075707,-4.42449,5.93762,0.599042,1.140525,0.024516,,,,,,
154,1503.906,6.263231,-4.53941,5.928043,0.782379,0.664063,0.302719,,,,,,
155,1513.672,5.257667,-4.2138,5.72693,0.856992,0.537219,0.349619,,,,,,
156,1523.438,3.533842,-3.5913,5.793968,0.891102,0.248357,0.156689,,,,,,
157,1533.203,2.96881,-2.69108,5.765237,0.767456,-0.15776,-0.04157,,,,,,
158,1542.969,3.083732,-2.32716,5.200206,0.484989,-0.45088,-0.41251,,,,,,
159,1552.734,2.959233,-2.61447,4.683058,0.047966,-0.57026,-0.71203,,,,,,
160,1562.5,2.375048,-2.91135,4.089296,-0.47113,-0.71736,-0.70563,,,,,,
161,1572.266,2.5187,-3.13162,4.089296,-0.73974,-0.97424,-0.41997,,,,,,
162,1582.031,3.064578,-2.70066,4.606444,-0.66406,-1.1821,-0.16735,,,,,,
163,1591.797,3.150769,-2.15478,4.817133,-0.50204,-1.35584,-0.10553,,,,,,
164,1601.563,3.86903,-1.6951,5.305551,-0.17055,-1.62551,-0.09913,,,,,,
165,1611.328,4.165911,-1.78129,5.889736,0.336828,-1.95382,-0.12045,,,,,,
166,1621.094,3.734955,-1.45568,6.694188,0.735479,-2.22775,-0.02665,,,,,,
167,1630.859,4.041412,-1.18752,7.489063,0.565999,-2.17979,-0.10872,,,,,,
168,1640.625,4.070143,-1.89621,8.207323,0.14603,-2.05934,-0.36454,,,,,,
169,1650.391,2.882619,-0.99599,9.318233,0.001066,-1.92504,-0.61397,,,,,,
170,1660.156,3.217807,-0.84276,9.873688,0.116184,-1.43791,-0.7099,,,,,,
171,1669.922,3.562572,-0.68953,10.41957,0.116184,-1.43791,-0.7099,,,,,,
172,1679.688,3.313575,-2.95923,11.30063,-0.28886,-1.33346,-0.80476,,,,,,
173,1689.453,2.585738,-3.75411,11.59751,-1.21727,-1.15971,-1.42726,,,,,,
174,1699.219,4.041412,-3.81157,10.43872,-1.74596,-0.83887,-2.33328,,,,,,
175,1708.984,4.481946,-3.67749,9.77792,-1.60846,-0.53082,-2.5422,,,,,,
176,1718.75,4.673481,-4.30956,9.14585,-1.30361,-0.16948,-2.40363,,,,,,
177,1728.516,4.702212,-4.71179,8.848969,-0.83461,0.230237,-2.38338,,,,,,
178,1738.281,5.00867,-4.52025,9.308656,-0.30485,0.540417,-2.42388,,,,,,
179,1748.047,5.219359,-3.72538,9.758766,0.252621,0.612899,-2.24268,,,,,,
180,1757.813,4.539406,-3.32315,9.988609,0.69071,0.658733,-1.92184,,,,,,
181,1767.578,3.744531,-3.68707,10.22803,0.657667,0.828213,-1.67988,,,,,,
182,1777.344,3.294421,-3.97438,10.52491,0.227039,1.001956,-1.61486,,,,,,
183,1787.109,3.342305,-3.90734,10.34295,-0.2409,1.111745,-1.72678,,,,,,
184,1796.875,3.811569,-3.34231,10.64941,-0.39652,0.95932,-1.72251,,,,,,
185,1806.641,3.533842,-2.6432,10.99417,-0.04477,0.444485,-1.42512,,,,,,
186,1816.406,2.863465,-2.17394,10.86968,0.592647,0.167348,-1.19169,,,,,,
187,1826.172,2.595315,-2.65278,10.90798,1.28762,-0.0032,-1.11814,,,,,,
188,1835.938,2.614468,-2.96881,10.66856,1.799258,-0.20892,-1.00409,,,,,,
189,1845.703,2.719813,-2.52828,10.23761,2.060406,-0.39439,-0.82502,,,,,,
190,1855.469,2.920926,-2.45166,9.758766,1.986858,-0.53935,-0.5628,,,,,,
191,1865.234,3.332729,-2.24097,9.021352,1.583944,-0.74614,0.029846,,,,,,
192,1875.0,3.409343,-1.1971,8.973468,1.348377,-0.90602,0.685381,,,,,,
193,1884.766,4.003105,-0.03831,9.184157,1.138393,-0.50737,0.54468,,,,,,
194,1894.531,4.434062,0.641646,9.059659,0.518033,0.412508,-0.43383,,,,,,
195,1904.297,3.064578,0.344765,8.398859,-0.34322,1.611657,-1.40807,,,,,,
196,1914.063,1.790863,-0.07661,7.920019,-0.71096,2.273588,-1.52106,,,,,,
197,1923.828,2.221819,0.363919,7.718906,-0.43596,2.290643,-1.19062,,,,,,
198,1933.594,2.595315,0.842759,8.101978,0.396519,1.816312,-1.62445,,,,,,
0,0.0,-8.80109,-0.45969,9.002198,1.682007,2.03589,-0.02558, R450,,,,,
1,9.765625,-4.5011,0.134075,3.41892,1.984726,1.656426,-0.31125,,,,,,
2,19.53125,-4.28083,-0.67038,8.283937,1.925035,2.157404,-0.29846,,,,,,
3,29.29688,-2.30801,-3.27527,8.743625,1.07657,1.387816,-0.15776,,,,,,
4,39.0625,-1.65679,-4.61602,9.643844,0.142832,0.837806,0.206787,,,,,,
5,48.82813,-1.20668,-5.70778,10.10353,-1.05312,0.296323,0.543615,,,,,,
6,58.59375,-1.31202,-5.65989,10.50576,-1.55623,-0.26435,0.750401,,,,,,
7,68.35938,-1.81959,-4.35745,11.43471,-1.79713,-0.65234,0.916683,,,,,,
8,78.125,-2.14521,-3.82115,11.85609,-1.6884,-0.59478,1.117075,,,,,,
9,87.89063,-2.43251,-3.36146,11.85609,-1.4603,-0.57986,1.082965,,,,,,
10,97.65625,-2.2314,-3.304,11.58794,-1.13839,-0.70137,1.10002,,,,,,
11,107.4219,-1.27372,-3.58173,11.08037,-0.68645,-0.67579,1.048856,,,,,,
12,117.1875,-0.83318,-3.88818,10.74518,-0.40931,-0.64168,0.769588,,,,,,
13,126.9531,-0.44053,-4.24253,10.60152,-0.27927,-0.72269,0.78451,,,,,,
14,136.7188,-0.10535,-4.42449,10.3621,-0.1876,-0.98917,0.518033,,,,,,
15,146.4844,0.45011,-4.22337,9.969456,0.040505,-0.97637,0.319773,,,,,,
16,156.25,0.679953,-4.24253,9.710881,0.287796,-0.99343,0.191864,,,,,,
17,166.0156,0.919373,-3.93607,9.605536,0.123646,-1.13626,-0.08954,,,,,,
18,175.7813,1.254562,-3.74453,9.576806,0.042636,-1.31107,-0.22171,,,,,,
19,185.5469,1.723825,-3.45723,9.509768,-0.10233,-1.407,-0.26435,,,,,,
20,195.3125,1.608904,-3.43807,9.346963,-0.18334,-1.57755,-0.27287,,,,,,
21,205.0781,1.503559,-3.61046,9.097966,-0.00853,-1.34944,-0.35601,,,,,,
22,214.8438,1.369483,-3.553,8.973468,0.16415,-1.35371,-0.26221,,,,,,
23,224.6094,1.273715,-4.06057,8.781932,0.285664,-1.20874,-0.2814,,,,,,
24,234.375,1.513135,-4.79798,8.446743,0.253687,-1.04886,-0.26221,,,,,,
25,244.1406,1.637634,-4.84586,8.255207,0.36241,-0.99556,-0.34749,,,,,,
26,253.9063,1.781286,-4.69264,8.188169,0.213182,-1.02328,-0.44129,,,,,,
27,263.6719,1.915361,-4.61602,8.121132,0.181205,-1.05312,-0.55001,,,,,,
28,273.4375,1.924938,-4.63517,7.929595,0.066086,-1.09363,-0.62676,,,,,,
29,283.2031,2.011129,-4.59687,7.833827,0.11725,-1.02541,-0.65234,,,,,,
30,292.9688,1.991976,-4.34787,7.757213,0.168414,-1.09789,-0.73548,,,,,,
31,302.7344,1.972822,-4.06057,7.776367,0.157755,-0.99556,-0.79943,,,,,,
32,312.5,1.675941,-3.88818,7.52737,0.285664,-0.99982,-0.76532,,,,,,
33,322.2656,1.455675,-3.74453,7.326257,0.398651,-0.92095,-0.87405,,,,,,
34,332.0313,1.369483,-3.64876,7.115567,0.387992,-0.83994,-1.21088,,,,,,
35,341.7969,1.398214,-3.60088,6.962338,0.486055,-0.69924,-1.3601,,,,,,
36,351.5625,1.091756,-3.82115,6.809109,0.782379,-0.56707,-1.40487,,,,,,
37,361.3281,0.708684,-4.07972,6.943185,0.628887,-0.21745,-1.27909,,,,,,
38,371.0938,0.651223,-3.84988,6.847416,0.79517,-0.03198,-1.05738,,,,,,
39,380.8594,0.852336,-3.74453,6.483498,0.567065,-0.20039,-1.2663,,,,,,
40,390.625,1.206678,-3.66792,7.010222,0.641678,0.02345,-1.03607,,,,,,
41,400.3906,1.216254,-3.5913,7.307103,0.296323,0.121514,-1.12773,,,,,,
42,410.1563,0.890643,-3.24654,7.469909,0.159887,-0.07461,-1.19808,,,,,,
43,419.9219,0.746991,-3.02627,7.76679,0.081009,-0.11299,-1.10855,,,,,,
44,429.6875,0.584185,-3.06458,8.264784,-0.02771,-0.04477,-1.04033,,,,,,
45,439.4531,0.373495,-2.86347,8.360552,0.019186,-0.07888,-1.06378,,,,,,
46,449.2188,0.057461,-2.67193,8.523357,-0.04903,-0.13857,-0.99556,,,,,,
47,458.9844,-0.05746,-2.53785,8.647856,-0.14283,0.031977,-0.73548,,,,,,
48,468.75,-0.25857,-2.66235,8.839393,0.014923,0.0,-0.68005,,,,,,
49,478.5156,-0.33519,-2.68151,8.743625,0.174809,0.24516,-0.82715,,,,,,
50,488.2813,-0.34477,-2.49955,8.619125,0.486055,0.313378,-0.66726,,,,,,
51,498.0469,-0.34477,-2.40378,8.734048,0.419969,0.419969,-0.67579,,,,,,
52,507.8125,-0.10535,-2.25055,9.193734,0.375201,0.326169,-0.75893,,,,,,
53,517.5781,-0.03831,-2.07817,9.442731,0.434892,0.183337,-0.80583,,,,,,
54,527.3438,-0.22984,-1.86748,9.634267,0.535087,0.264346,-0.663,,,,,,
55,537.1094,-0.72784,-1.17795,9.854534,0.377332,0.240896,-0.57559,,,,,,
56,546.875,-1.3216,-1.13006,9.481038,0.481792,0.193996,-0.47326,,,,,,
57,556.6406,-1.38864,-1.14922,9.366117,0.599042,0.174809,-0.32404,,,,,,
58,566.4063,-1.50356,-1.01514,9.35654,0.547878,0.208919,-0.20252,,,,,,
59,576.1719,-1.66636,-1.0343,9.318233,0.460474,0.149228,-0.194,,,,,,
60,585.9375,-1.67594,-1.20668,9.318233,0.575592,0.356014,-0.02985,,,,,,
61,595.7031,-1.83875,-2.03028,9.155427,0.383728,0.326169,-0.02985,,,,,,
62,605.4688,-1.89621,-2.2697,9.011775,0.430628,0.157755,0.193996,,,,,,
63,615.2344,-1.76213,-2.27928,9.078813,0.302719,0.138568,0.283532,,,,,,
64,625.0,-1.7334,-2.26013,9.366117,0.300587,0.132173,0.509505,,,,,,
65,634.7656,-1.38864,-2.32716,9.979033,0.072482,0.006395,0.402914,,,,,,
66,644.5313,-1.13964,-2.62405,10.17057,-0.11725,-0.21958,0.492451,,,,,,
67,654.2969,-1.31202,-2.68151,10.35253,0.021318,-0.13217,0.515901,,,,,,
68,664.0625,-1.71425,-2.30801,10.37168,0.02345,0.02345,0.635283,,,,,,
69,673.8281,-2.12605,-2.09732,10.55364,0.221709,0.110855,0.641678,,,,,,
70,683.5938,-2.11647,-2.07817,10.49618,0.458342,0.202523,0.471133,,,,,,
71,693.3594,-2.07817,-2.03028,10.52491,0.71416,0.306982,0.317641,,,,,,
72,703.125,-2.02071,-2.17394,10.4866,0.940133,0.611833,0.302719,,,,,,
73,712.8906,-1.79086,-2.94008,10.21845,0.91242,0.592647,0.162018,,,,,,
74,722.6563,-1.75256,-3.304,10.13226,0.775983,0.57346,0.283532,,,,,,
75,732.4219,-1.92494,-3.33273,9.979033,0.518033,0.660865,0.341092,,,,,,
76,742.1875,-2.14521,-3.10289,9.883265,0.543615,0.633151,0.475396,,,,,,
77,751.9531,-2.15478,-3.04542,9.931149,0.400782,0.769588,0.326169,,,,,,
78,761.7188,-1.76213,-3.06458,10.06522,0.417837,0.488187,0.287796,,,,,,
79,771.4844,-1.1971,-3.304,9.979033,0.25795,0.449814,0.147096,,,,,,
80,781.25,-0.80445,-3.06458,10.18972,0.24516,-0.01279,0.061823,,,,,,
81,791.0156,-0.06704,-2.53785,9.184157,0.545746,-1.38995,0.091668,,,,,,
82,800.7813,0.497994,-1.14922,5.736507,1.547703,-2.92912,-0.27074,,,,,,
83,810.5469,0.976834,0.306458,3.169923,2.400431,-3.50045,-0.31551,,,,,,
84,820.3125,0.593762,0.181959,1.522712,2.151008,-3.64755,-0.37733,,,,,,
85,830.0781,0.277727,0.45011,0.124498,2.291709,-3.56441,-0.43489,,,,,,
86,839.8438,0.258574,0.440533,0.143652,2.291709,-3.60704,-0.3752,,,,,,
87,849.6094,0.258574,0.459687,0.162806,2.206436,-3.56867,-0.63528,,,,,,
88,859.375,0.258574,0.45011,0.181959,2.20004,-3.48766,-0.47326,,,,,,
89,869.1406,0.287304,0.440533,0.220267,2.131822,-3.51751,-0.49458,,,,,,
90,878.9063,0.277727,0.430956,0.268151,13.37718,-2.62001,0.172678,,,,,,
91,888.6719,-1.14922,0.746991,20.90617,19.91761,-27.8011,-0.63528,,,,,,
92,898.4375,11.03248,7.412448,2.001553,-0.42636,13.80142,7.186372,,,,,,
93,908.2031,9.844957,1.436521,10.63983,0.831411,4.400081,-2.15954,,,,,,
94,917.9688,-0.03831,2.173935,5.765237,5.022573,3.048506,-2.345,,,,,,
95,927.7344,6.579266,0.143652,5.774814,-2.73726,-2.56885,-0.49458,,,,,,
96,937.5,9.509768,-2.43251,12.29662,-3.41944,1.127734,1.24072,,,,,,
97,947.2656,4.012682,4.118027,9.701304,0.475396,0.716292,-0.7973,,,,,,
98,957.0313,6.358999,1.790863,9.538499,1.14692,1.456034,-0.31551,,,,,,
99,966.7969,3.457227,1.819593,9.758766,-0.50737,-0.14923,-0.01706,,,,,,
100,976.5625,2.777274,1.752556,7.31668,0.102327,0.204655,-0.09806,,,,,,
101,986.3281,6.138733,2.509123,9.500192,0.006395,0.044768,-0.01919,,,,,,
102,996.0938,4.357447,1.733402,8.887277,-0.04051,0.091668,-0.17907,,,,,,
103,1005.859,4.472369,1.723825,8.935161,0.006395,-0.03837,-0.01279,,,,,,
104,1015.625,4.319139,1.752556,8.791509,0.019186,0.014923,0.053296,,,,,,
105,1025.391,4.520253,1.733402,8.963891,0.049032,-0.00853,0.012791,,,,,,
106,1035.156,4.491522,1.704672,9.002198,-0.02558,0.072482,0.057559,,,,,,
107,1044.922,4.386178,1.733402,8.781932,0.061823,0.078877,-0.1471,,,,,,
108,1054.688,4.491522,1.714248,9.030929,-0.03198,0.0,-0.09806,,,,,,
109,1064.453,4.395754,1.723825,8.8777,0.081009,-0.05969,0.036241,,,,,,
110,1074.219,4.443638,1.733402,8.944737,-0.06609,-0.01066,-0.11086,,,,,,
111,1083.984,4.414908,1.723825,8.887277,0.0,0.098064,0.0,,,,,,
112,1093.75,4.462792,1.723825,8.935161,-0.04051,0.162018,0.038373,,,,,,
113,1103.516,4.424485,1.742979,8.925584,-0.09167,-0.15562,-0.07675,,,,,,
114,1113.281,4.424485,1.733402,8.887277,0.0,0.019186,0.053296,,,,,,
115,1123.047,4.434062,1.733402,8.944737,0.0938,0.055427,-0.01919,,,,,,
116,1132.813,4.414908,1.723825,8.896853,-0.03837,0.059691,-0.04903,,,,,,
117,1142.578,4.405331,1.742979,8.925584,-0.01919,-0.05116,0.07035,,,,,,
118,1152.344,4.424485,1.723825,8.925584,-0.02132,-0.05756,-0.09593,,,,,,
119,1162.109,4.434062,1.723825,8.935161,-0.09167,-0.13644,0.038373,,,,,,
120,1171.875,4.424485,1.733402,8.896853,0.053296,0.063955,0.193996,,,,,,
121,1181.641,4.453215,1.762132,8.896853,-0.02771,0.038373,0.036241,,,,,,
122,1191.406,4.414908,1.733402,8.916007,-0.07675,0.206787,0.017055,,,,,,
123,1201.172,4.434062,1.714248,8.896853,-0.05969,-0.09167,-0.00213,,,,,,
124,1210.938,4.434062,1.723825,8.925584,0.02345,0.012791,0.0,,,,,,
125,1220.703,4.414908,1.723825,8.90643,0.074614,0.038373,0.044768,,,,,,
126,1230.469,4.414908,1.723825,8.925584,-0.04903,-0.10233,-0.11086,,,,,,
127,1240.234,4.424485,1.752556,8.916007,0.098064,0.074614,0.049032,,,,,,
128,1250.0,4.434062,1.752556,8.90643,-0.02771,-0.05116,-0.04264,,,,,,
129,1259.766,4.424485,1.733402,8.925584,0.002132,0.004264,0.044768,,,,,,
130,1269.531,4.443638,1.733402,8.925584,-0.08314,0.029846,0.034109,,,,,,
131,1279.297,4.434062,1.742979,8.925584,0.014923,-0.02132,-0.05543,,,,,,
132,1289.063,4.434062,1.752556,8.90643,0.02345,0.110855,-0.04264,,,,,,
133,1298.828,4.434062,1.733402,8.925584,-0.11086,0.029846,-0.00213,,,,,,
134,1308.594,4.453215,1.714248,8.896853,-0.04903,-0.03624,-0.0469,,,,,,
135,1318.359,4.424485,1.742979,8.896853,0.02345,-0.12365,0.104459,,,,,,
136,1328.125,4.414908,1.714248,8.925584,0.049032,-0.00853,0.085273,,,,,,
137,1337.891,4.443638,1.742979,8.90643,-0.04051,-0.05756,-0.12151,,,,,,
138,1347.656,4.434062,1.723825,8.896853,-0.14923,0.010659,-0.07675,,,,,,
139,1357.422,4.434062,1.733402,8.916007,0.081009,0.081009,0.014923,,,,,,
140,1367.188,4.414908,1.714248,8.925584,-0.14923,-0.13857,-0.05969,,,,,,
141,1376.953,4.414908,1.733402,8.916007,0.07035,0.07035,0.055427,,,,,,
142,1386.719,4.434062,1.733402,8.916007,0.012791,0.019186,-0.0469,,,,,,
143,1396.484,4.424485,1.733402,8.90643,-0.02558,0.115118,-0.01919,,,,,,
144,1406.25,4.424485,1.723825,8.916007,-0.03411,-0.15349,-0.0469,,,,,,
145,1416.016,4.405331,1.723825,8.916007,-0.02558,-0.06182,-0.02345,,,,,,
146,1425.781,4.443638,1.733402,8.896853,0.068218,-0.03837,0.059691,,,,,,
147,1435.547,4.434062,1.733402,8.90643,0.004264,-0.02558,0.021318,,,,,,
148,1445.313,4.443638,1.752556,8.916007,0.098064,0.040505,-0.06822,,,,,,
149,1455.078,4.424485,1.733402,8.90643,0.053296,0.017055,0.021318,,,,,,
150,1464.844,4.424485,1.733402,8.90643,0.050098,0.010659,0.020252,,,,,,
151,1474.609,4.424485,1.733402,8.90643,0.047966,0.004264,0.019186,,,,,,
152,1484.375,4.424485,1.733402,8.90643,0.044768,-0.00213,0.01812,,,,,,
153,1494.141,4.424485,1.742979,8.90643,0.041571,-0.00853,0.017055,,,,,,
154,1503.906,4.424485,1.742979,8.90643,0.039439,-0.01492,0.015989,,,,,,
155,1513.672,4.424485,1.742979,8.90643,0.036241,-0.02132,0.014923,,,,,,
156,1523.438,4.424485,1.742979,8.90643,0.033043,-0.02771,0.013857,,,,,,
157,1533.203,4.424485,1.742979,8.90643,0.029846,-0.03411,0.012791,,,,,,
158,1542.969,4.424485,1.742979,8.90643,0.027714,-0.04051,0.011725,,,,,,
159,1552.734,4.424485,1.752556,8.916007,0.024516,-0.0469,0.010659,,,,,,
160,1562.5,4.424485,1.752556,8.916007,0.021318,-0.0533,0.009593,,,,,,
161,1572.266,4.424485,1.752556,8.916007,0.019186,-0.05969,0.008527,,,,,,
162,1582.031,4.424485,1.752556,8.916007,0.015989,-0.06609,0.007461,,,,,,
163,1591.797,4.424485,1.752556,8.916007,0.012791,-0.07248,0.006395,,,,,,
164,1601.563,4.424485,1.752556,8.916007,0.010659,-0.07888,0.00533,,,,,,
165,1611.328,4.424485,1.752556,8.916007,0.007461,-0.08527,0.004264,,,,,,
166,1621.094,4.424485,1.762132,8.916007,0.004264,-0.09167,0.003198,,,,,,
167,1630.859,4.424485,1.762132,8.916007,0.001066,-0.09806,0.002132,,,,,,
168,1640.625,4.424485,1.762132,8.916007,-0.00107,-0.10446,0.001066,,,,,,
169,1650.391,4.424485,1.762132,8.916007,-0.00426,-0.11086,0.0,,,,,,
170,1660.156,4.434062,1.742979,8.925584,0.166282,0.031977,0.189732,,,,,,
171,1669.922,4.414908,1.752556,8.90643,0.008527,-0.02771,0.125777,,,,,,
172,1679.688,4.424485,1.733402,8.896853,0.063955,0.07035,0.051164,,,,,,
173,1689.453,4.424485,1.723825,8.916007,-0.04477,0.021318,-0.12151,,,,,,
174,1699.219,4.434062,1.723825,8.925584,-0.06182,-0.07461,0.108723,,,,,,
175,1708.984,4.434062,1.723825,8.90643,0.061823,-0.05969,-0.194,,,,,,
176,1718.75,4.443638,1.723825,8.90643,-0.04477,-0.02345,0.008527,,,,,,
177,1728.516,4.434062,1.704672,8.925584,-0.06182,0.049032,0.076746,,,,,,
178,1738.281,4.434062,1.733402,8.925584,0.0469,0.059691,0.134305,,,,,,
179,1748.047,4.443638,1.733402,8.90643,0.038373,0.061823,-0.04903,,,,,,
180,1757.813,4.424485,1.742979,8.925584,0.021318,0.081009,0.059691,,,,,,
181,1767.578,4.414908,1.742979,8.916007,0.051164,-0.1002,-0.07248,,,,,,
182,1777.344,4.434062,1.733402,8.90643,0.081009,-0.04903,-0.06182,,,,,,
183,1787.109,4.434062,1.733402,8.896853,-0.03837,0.021318,0.061823,,,,,,
184,1796.875,4.424485,1.733402,8.90643,0.144964,0.083141,0.038373,,,,,,
185,1806.641,4.424485,1.733402,8.916007,0.136437,0.149228,0.012791,,,,,,
186,1816.406,4.414908,1.752556,8.90643,-0.01279,-0.0938,-0.02345,,,,,,
187,1826.172,4.443638,1.723825,8.935161,0.025582,0.057559,-0.03411,,,,,,
188,1835.938,4.443638,1.733402,8.944737,0.081009,0.027714,-0.00853,,,,,,
189,1845.703,4.414908,1.742979,8.90643,-0.08741,-0.03837,-0.05543,,,,,,
190,1855.469,4.453215,1.733402,8.925584,-0.05116,0.002132,0.004264,,,,,,
191,1865.234,4.424485,1.742979,8.90643,-0.06396,-0.14923,-0.10872,,,,,,
192,1875.0,4.395754,1.733402,8.896853,-0.01279,-0.1002,0.014923,,,,,,
193,1884.766,4.414908,1.723825,8.916007,-0.01706,-0.01279,-0.00426,,,,,,
194,1894.531,4.424485,1.733402,8.925584,0.183337,-0.07675,0.110855,,,,,,
195,1904.297,4.453215,1.742979,8.925584,-0.08101,0.061823,0.07035,,,,,,
196,1914.063,4.424485,1.723825,8.90643,-0.01066,-0.08741,-0.03624,,,,,,
197,1923.828,4.424485,1.723825,8.925584,-0.00853,0.059691,-0.08101,,,,,,
198,1933.594,4.434062,1.742979,8.896853,-0.04051,-0.11512,-0.07888,,,,,,
0,0.0,-0.35434,0.545878,-10.1897,0.014923,0.003198,0.00533, R453,,,,,
1,9.765625,-0.39265,0.545878,-10.1993,0.013857,0.002132,0.00533,,,,,,
2,19.53125,-0.38307,0.545878,-10.1897,0.013857,0.003198,0.003198,,,,,,
3,29.29688,-0.40223,0.565032,-10.1897,0.012791,0.003198,0.004264,,,,,,
4,39.0625,-0.38307,0.565032,-10.2185,0.015989,0.00533,0.00533,,,,,,
5,48.82813,-0.39265,0.565032,-10.1993,0.013857,0.00533,0.00533,,,,,,
6,58.59375,-0.39265,0.555455,-10.2185,0.014923,0.006395,0.004264,,,,,,
7,68.35938,-0.38307,0.555455,-10.2089,0.017055,0.006395,0.004264,,,,,,
8,78.125,-0.38307,0.584185,-10.1706,0.014923,0.004264,0.004264,,,,,,
9,87.89063,-0.4118,0.555455,-10.2089,0.01812,0.008527,0.00533,,,,,,
10,97.65625,-0.39265,0.545878,-10.2089,0.01812,0.008527,0.006395,,,,,,
11,107.4219,-0.40223,0.565032,-10.1993,0.01812,0.00533,0.006395,,,,,,
12,117.1875,-0.39265,0.536301,-10.2185,0.014923,0.00533,0.008527,,,,,,
13,126.9531,-0.39265,0.545878,-10.1993,0.014923,0.00533,0.006395,,,,,,
14,136.7188,-0.39265,0.555455,-10.2185,0.014923,0.00533,0.006395,,,,,,
15,146.4844,-0.42138,0.545878,-10.1801,0.015989,0.007461,0.007461,,,,,,
16,156.25,-0.38307,0.545878,-10.2089,0.015989,0.006395,0.009593,,,,,,
17,166.0156,-0.39265,0.555455,-10.2089,0.014923,0.00533,0.012791,,,,,,
18,175.7813,-0.38307,0.555455,-10.1993,0.015989,0.006395,0.011725,,,,,,
19,185.5469,-0.39265,0.565032,-10.1897,0.015989,0.006395,0.015989,,,,,,
20,195.3125,-0.3735,0.545878,-10.2185,0.013857,0.00533,0.014923,,,,,,
21,205.0781,-0.3735,0.526724,-10.1993,0.014923,0.006395,0.010659,,,,,,
22,214.8438,-0.40223,0.545878,-10.2185,0.014923,0.006395,0.010659,,,,,,
23,224.6094,-0.39265,0.545878,-10.2185,0.014923,0.003198,0.011725,,,,,,
24,234.375,-0.38307,0.536301,-10.1897,0.015989,0.004264,0.009593,,,,,,
25,244.1406,-0.38307,0.545878,-10.1706,0.015989,0.007461,0.009593,,,,,,
26,253.9063,-0.38307,0.536301,-10.1993,0.013857,0.00533,0.009593,,,,,,
27,263.6719,-0.3735,0.555455,-10.1993,0.014923,0.004264,0.006395,,,,,,
28,273.4375,-0.38307,0.555455,-10.1897,0.017055,0.004264,0.006395,,,,,,
29,283.2031,-0.39265,0.555455,-10.1993,0.014923,0.004264,0.007461,,,,,,
30,292.9688,-0.39265,0.555455,-10.2089,0.014923,0.00533,0.006395,,,,,,
31,302.7344,-0.39265,0.517148,-10.1897,0.013857,0.004264,0.007461,,,,,,
32,312.5,-0.39265,0.536301,-10.1897,0.014923,0.004264,0.007461,,,,,,
33,322.2656,-0.39265,0.555455,-10.2185,0.017055,0.00533,0.006395,,,,,,
34,332.0313,-0.40223,0.526724,-10.2089,0.015989,0.007461,0.008527,,,,,,
35,341.7969,-0.38307,0.536301,-10.1897,0.013857,0.00533,0.00533,,,,,,
36,351.5625,-0.36392,0.536301,-10.1706,0.014923,0.004264,0.007461,,,,,,
37,361.3281,-0.38307,0.565032,-10.2089,0.014923,0.004264,0.007461,,,,,,
38,371.0938,-0.40223,0.545878,-10.1897,0.014923,0.00533,0.009593,,,,,,
39,380.8594,-0.40223,0.545878,-10.2089,0.012791,0.004264,0.010659,,,,,,
40,390.625,-0.36392,0.545878,-10.1897,0.013857,0.004264,0.008527,,,,,,
41,400.3906,-0.40223,0.545878,-10.2185,0.014923,0.00533,0.007461,,,,,,
42,410.1563,-0.40223,0.545878,-10.1993,0.015989,0.004264,0.006395,,,,,,
43,419.9219,-0.38307,0.536301,-10.1801,0.017055,0.00533,0.006395,,,,,,
44,429.6875,-0.39265,0.555455,-10.2376,0.013857,0.004264,0.00533,,,,,,
45,439.4531,-0.38307,0.555455,-10.2376,0.014923,0.004264,0.006395,,,,,,
46,449.2188,-0.39265,0.565032,-10.2185,0.015989,0.004264,0.006395,,,,,,
47,458.9844,-0.44053,0.565032,-10.1993,0.015989,0.003198,0.008527,,,,,,
48,468.75,-0.36392,0.526724,-10.1993,0.015989,0.00533,0.010659,,,,,,
49,478.5156,-0.31604,0.507571,-10.1801,0.015989,0.004264,0.010659,,,,,,
50,488.2813,-0.38307,0.536301,-10.2185,9e-06,-0.0032,-0.00106,,,,,,
51,498.0469,-0.45011,0.545878,-10.1993,9e-06,-0.00213,0.002136,,,,,,
52,507.8125,-0.40223,0.555455,-10.1706,0.002141,3e-06,0.003202,,,,,,
53,517.5781,-0.31604,0.545878,-10.1897,0.003207,-0.00106,0.003202,,,,,,
54,527.3438,-0.40223,0.584185,-10.1897,0.003207,-0.00106,5e-06,,,,,,
55,537.1094,-0.36392,0.526724,-10.1897,0.002141,3e-06,0.002136,,,,,,
56,546.875,-0.36392,0.517148,-10.1993,-0.00106,-0.00106,0.003202,,,,,,
57,556.6406,-0.42138,0.545878,-10.1993,0.004273,-0.00213,-0.00106,,,,,,
58,566.4063,-0.35434,0.536301,-10.1801,0.001075,-0.00213,-0.00106,,,,,,
59,576.1719,-0.35434,0.526724,-10.1801,-0.00106,-0.0032,-0.00319,,,,,,
60,585.9375,-0.40223,0.545878,-10.1897,9e-06,-0.00106,-0.00213,,,,,,
61,595.7031,-0.40223,0.536301,-10.1993,0.001075,-0.00213,-0.00213,,,,,,
62,605.4688,-0.39265,0.536301,-10.2185,-0.00212,-0.0032,-0.00319,,,,,,
63,615.2344,-0.3735,0.536301,-10.1993,-0.00212,-0.00213,-0.00319,,,,,,
64,625.0,-0.35434,0.545878,-10.1993,9e-06,-0.00106,-0.00213,,,,,,
65,634.7656,-0.38307,0.545878,-10.2185,0.002141,-0.00106,-0.00319,,,,,,
66,644.5313,-0.39265,0.565032,-10.1801,0.002141,3e-06,-0.00319,,,,,,
67,654.2969,-0.35434,0.555455,-10.1897,-0.00106,-0.00213,-0.00106,,,,,,
68,664.0625,-0.39265,0.555455,-10.2089,-0.00426,-0.00106,-0.00213,,,,,,
69,673.8281,-0.3735,0.555455,-10.1993,-0.00106,3e-06,5e-06,,,,,,
70,683.5938,-0.36392,0.526724,-10.2089,9e-06,3e-06,0.003202,,,,,,
71,693.3594,-0.39265,0.536301,-10.1993,-0.00106,-0.00106,0.002136,,,,,,
72,703.125,-0.3735,0.526724,-10.1993,-0.00212,-0.00106,0.004268,,,,,,
73,712.8906,-0.38307,0.565032,-10.1801,-0.00106,3e-06,0.003202,,,,,,
74,722.6563,-0.39265,0.526724,-10.1897,0.001075,3e-06,0.003202,,,,,,
75,732.4219,-0.40223,0.536301,-10.2376,0.004273,3e-06,0.003202,,,,,,
76,742.1875,-0.43096,0.555455,-10.2185,0.004273,0.003201,0.005334,,,,,,
77,751.9531,-0.4118,0.555455,-10.2089,0.003207,0.002135,0.009598,,,,,,
78,761.7188,-0.45011,0.565032,-10.1897,0.001075,-0.00106,0.012795,,,,,,
79,771.4844,-0.39265,0.536301,-10.2185,-0.00106,-0.00106,0.020257,,,,,,
80,781.25,-0.32561,0.517148,-10.1993,9e-06,3e-06,0.019191,,,,,,
81,791.0156,-0.31604,0.545878,-10.1897,0.001075,-0.00106,0.0064,,,,,,
82,800.7813,-0.38307,0.545878,-10.1897,9e-06,-0.00106,-0.00106,,,,,,
83,810.5469,-0.3735,0.536301,-10.1993,0.001075,-0.00106,-0.00213,,,,,,
84,820.3125,-0.39265,0.536301,-10.1801,0.003207,-0.00106,-0.00319,,,,,,
85,830.0781,-0.36392,0.545878,-10.2185,9e-06,-0.0032,-0.00319,,,,,,
86,839.8438,-0.34477,0.536301,-10.2376,-0.00106,-0.00106,-0.00426,,,,,,
87,849.6094,-0.38307,0.555455,-10.1706,0.002141,0.003201,-0.00319,,,,,,
88,859.375,-0.3735,0.536301,-10.1897,0.001075,-0.0032,-0.00426,,,,,,
89,869.1406,-0.38307,0.536301,-10.2185,0.001075,-0.00213,-0.00319,,,,,,
90,878.9063,-0.39265,0.545878,-10.1993,0.004273,0.003201,-0.00213,,,,,,
91,888.6719,-0.3735,0.555455,-10.2185,0.002141,-0.00106,-0.00106,,,,,,
92,898.4375,-0.3735,0.507571,-10.2089,-0.00212,-0.0032,-0.00533,,,,,,
93,908.2031,-0.39265,0.545878,-10.1897,-0.00319,-0.00426,-0.00319,,,,,,
94,917.9688,-0.3735,0.545878,-10.1993,-0.00426,-0.0032,-0.00319,,,,,,
95,927.7344,-0.39265,0.526724,-10.1706,-0.00639,3e-06,-0.00426,,,,,,
96,937.5,-0.21069,0.411803,-10.2185,-0.00212,0.001069,-0.01492,,,,,,
97,947.2656,-0.30646,0.411803,-10.2185,0.005339,3e-06,-0.08953,,,,,,
98,957.0313,-0.48842,0.593762,-10.2185,0.002141,-0.00106,-0.10872,,,,,,
99,966.7969,-0.22027,0.459687,-10.2089,-0.00639,-0.00106,-0.08207,,,,,,
100,976.5625,-0.16281,0.344765,-10.1993,-0.00426,-0.00106,-0.16095,,,,,,
101,986.3281,-0.32561,0.430956,-10.1993,-0.00212,0.001069,-0.25901,,,,,,
102,996.0938,-0.35434,0.363919,-10.2089,0.002141,3e-06,-0.29632,,,,,,
103,1005.859,-0.54588,0.344765,-10.1993,0.001075,3e-06,-0.29312,,,,,,
104,1015.625,-0.45969,0.699107,-10.2089,0.003207,3e-06,-0.24409,,,,,,
105,1025.391,-0.33519,0.622492,-10.2472,0.005339,-0.00106,-0.18653,,,,,,
106,1035.156,-0.49799,0.47884,-10.228,0.002141,-0.00213,-0.17161,,,,,,
107,1044.922,-0.54588,0.383072,-10.1993,0.003207,-0.00106,-0.16201,,,,,,
108,1054.688,-0.32561,0.507571,-10.2089,0.003207,3e-06,-0.09699,,,,,,
109,1064.453,-0.25857,0.459687,-10.2185,0.001075,3e-06,-0.02025,,,,,,
110,1074.219,-0.55546,0.526724,-10.2376,0.002141,-0.00213,-0.02451,,,,,,
111,1083.984,-0.63207,0.555455,-10.2376,0.003207,3e-06,-0.03943,,,,,,
112,1093.75,-0.42138,0.45011,-10.2185,9e-06,0.001069,-0.05009,,,,,,
113,1103.516,-0.15323,0.814029,-10.2089,0.001075,0.001069,-0.06715,,,,,,
114,1113.281,-0.38307,0.584185,-10.2185,-0.00426,0.003201,-0.10659,,,,,,
115,1123.047,-0.40223,0.392649,-10.1706,-0.01172,0.006399,-0.0874,,,,,,
116,1132.813,-0.43096,0.6608,-10.2089,-0.00852,0.005333,-0.04476,,,,,,
117,1142.578,-0.49799,0.641646,-10.2185,-0.00106,0.002135,-0.00213,,,,,,
118,1152.344,-0.16281,0.881066,-10.1897,0.006405,0.002135,0.023455,,,,,,
119,1162.109,-0.20111,0.708684,-10.1897,0.004273,3e-06,0.0064,,,,,,
120,1171.875,-0.39265,0.507571,-10.1706,-0.00106,-0.00106,-0.00319,,,,,,
121,1181.641,-0.3735,0.526724,-10.2089,9e-06,-0.00106,-0.00319,,,,,,
122,1191.406,-0.35434,0.526724,-10.228,0.003207,-0.00106,-0.00426,,,,,,
123,1201.172,-0.3735,0.526724,-10.1993,0.003207,-0.00106,-0.00426,,,,,,
124,1210.938,-0.38307,0.536301,-10.1897,0.002141,3e-06,-0.00319,,,,,,
125,1220.703,-0.38307,0.536301,-10.2185,-0.00106,3e-06,-0.00426,,,,,,
126,1230.469,-0.38307,0.526724,-10.1993,0.001075,-0.00106,-0.00319,,,,,,
127,1240.234,-0.3735,0.536301,-10.2185,-0.00106,-0.00106,-0.00319,,,,,,
128,1250.0,-0.3735,0.526724,-10.228,-0.00319,3e-06,-0.00426,,,,,,
129,1259.766,-0.3735,0.545878,-10.2089,9e-06,-0.00106,-0.00426,,,,,,
130,1269.531,-0.3735,0.536301,-10.1993,0.001075,-0.00106,-0.00426,,,,,,
131,1279.297,-0.36392,0.421379,-10.2185,-0.00212,-0.00213,-0.01598,,,,,,
132,1289.063,-0.35434,0.555455,-10.2185,-0.00212,-0.00213,-0.04476,,,,,,
133,1298.828,-0.3735,0.555455,-10.1993,-0.00106,-0.00106,-0.03943,,,,,,
134,1308.594,-0.3735,0.584185,-10.2089,0.002141,-0.00106,-0.02238,,,,,,
135,1318.359,-0.3735,0.517148,-10.1993,9e-06,-0.00106,-0.01385,,,,,,
136,1328.125,-0.38307,0.517148,-10.2185,0.001075,-0.00106,-0.02025,,,,,,
137,1337.891,-0.3735,0.517148,-10.2089,9e-06,3e-06,-0.02345,,,,,,
138,1347.656,-0.36392,0.555455,-10.1993,-0.00106,3e-06,-0.02558,,,,,,
139,1357.422,-0.35434,0.555455,-10.1993,-0.00106,0.001069,-0.01598,,,,,,
140,1367.188,-0.35434,0.555455,-10.228,0.003207,-0.00106,-0.00959,,,,,,
141,1376.953,-0.38307,0.526724,-10.2089,0.004273,-0.00106,-0.00639,,,,,,
142,1386.719,-0.3735,0.545878,-10.2089,0.006405,-0.00106,-0.00319,,,,,,
143,1396.484,-0.3735,0.526724,-10.2185,0.005339,0.002135,-0.00319,,,,,,
144,1406.25,-0.3735,0.507571,-10.2089,0.002141,0.004267,-0.00213,,,,,,
145,1416.016,-0.3735,0.526724,-10.1801,0.001075,0.004267,-0.00426,,,,,,
146,1425.781,-0.3735,0.526724,-10.2089,0.002141,0.004267,-0.00426,,,,,,
147,1435.547,-0.3735,0.536301,-10.2472,0.003207,0.002135,-0.00213,,,,,,
148,1445.313,-0.38307,0.536301,-10.2089,0.002141,0.001069,-0.00319,,,,,,
149,1455.078,-0.38307,0.536301,-10.1993,0.002141,0.003201,-0.00426,,,,,,
150,1464.844,-0.38307,0.526724,-10.2185,0.001075,0.001069,-0.00319,,,,,,
151,1474.609,-0.38307,0.536301,-10.1993,0.002141,3e-06,-0.00319,,,,,,
152,1484.375,-0.38307,0.536301,-10.1897,0.002141,-0.00106,-0.00319,,,,,,
153,1494.141,-0.39265,0.536301,-10.2089,0.002141,-0.00213,-0.00319,,,,,,
154,1503.906,-0.3735,0.545878,-10.1993,0.002141,3e-06,-0.00213,,,,,,
155,1513.672,-0.3735,0.526724,-10.1801,0.002141,-0.00106,-0.00319,,,,,,
156,1523.438,-0.3735,0.536301,-10.1897,-0.00106,-0.00213,-0.00319,,,,,,
157,1533.203,-0.38307,0.536301,-10.1993,0.003207,0.001069,-0.00213,,,,,,
158,1542.969,-0.39265,0.555455,-10.2089,0.003207,0.001069,-0.00213,,,,,,
159,1552.734,-0.40223,0.536301,-10.2185,0.003207,0.002135,-0.00319,,,,,,
160,1562.5,-0.39265,0.526724,-10.1897,0.001075,0.001069,-0.00319,,,,,,
161,1572.266,-0.39265,0.536301,-10.1897,0.001075,0.001069,-0.00426,,,,,,
162,1582.031,-0.3735,0.526724,-10.228,0.001075,0.001069,-0.00319,,,,,,
163,1591.797,-0.39265,0.517148,-10.2089,-0.00106,3e-06,-0.00319,,,,,,
164,1601.563,-0.40223,0.536301,-10.1897,9e-06,-0.00106,-0.00426,,,,,,
165,1611.328,-0.38307,0.545878,-10.2089,0.001075,-0.00213,-0.00213,,,,,,
166,1621.094,-0.3735,0.555455,-10.2089,0.001075,-0.00213,-0.00319,,,,,,
167,1630.859,-0.38307,0.536301,-10.2185,9e-06,-0.00213,-0.00319,,,,,,
168,1640.625,-0.39265,0.526724,-10.2185,0.002141,3e-06,-0.00319,,,,,,
169,1650.391,-0.39265,0.536301,-10.1993,0.001075,3e-06,-0.00319,,,,,,
170,1660.156,-0.39265,0.526724,-10.2089,-0.00106,3e-06,-0.00319,,,,,,
171,1669.922,-0.39265,0.545878,-10.1897,9e-06,3e-06,-0.00319,,,,,,
172,1679.688,-0.38307,0.545878,-10.2089,0.001075,3e-06,-0.00319,,,,,,
173,1689.453,-0.35434,0.526724,-10.1897,0.002141,0.001069,-0.00426,,,,,,
174,1699.219,-0.38307,0.536301,-10.1897,0.002141,0.001069,-0.00426,,,,,,
175,1708.984,-0.39265,0.526724,-10.2185,0.002141,0.001069,-0.00426,,,,,,
176,1718.75,-0.38307,0.526724,-10.2089,0.001075,-0.00106,-0.00319,,,,,,
177,1728.516,-0.40223,0.536301,-10.1993,0.001075,-0.00213,-0.00213,,,,,,
178,1738.281,-0.3735,0.536301,-10.1993,-0.00319,-0.00106,-0.00319,,,,,,
179,1748.047,-0.38307,0.536301,-10.1801,-0.00426,-0.00213,-0.00319,,,,,,
180,1757.813,-0.40223,0.545878,-10.2089,-0.00106,-0.00106,-0.00213,,,,,,
181,1767.578,-0.40223,0.536301,-10.1993,-0.00106,0.001069,5e-06,,,,,,
182,1777.344,-0.40223,0.517148,-10.228,0.001075,3e-06,5e-06,,,,,,
183,1787.109,-0.38307,0.536301,-10.2089,0.003207,0.001069,5e-06,,,,,,
184,1796.875,-0.38307,0.536301,-10.2185,0.003207,0.001069,-0.00106,,,,,,
185,1806.641,-0.39265,0.517148,-10.2089,0.003207,0.001069,-0.00106,,,,,,
186,1816.406,-0.39265,0.536301,-10.161,0.003207,3e-06,-0.00213,,,,,,
187,1826.172,-0.38307,0.536301,-10.1897,9e-06,-0.00106,-0.00106,,,,,,
188,1835.938,-0.40223,0.517148,-10.1706,0.001075,-0.0032,-0.00319,,,,,,
189,1845.703,-0.38307,0.526724,-10.2089,9e-06,-0.00106,-0.00319,,,,,,
190,1855.469,-0.35434,0.545878,-10.2089,-0.00106,3e-06,-0.00319,,,,,,
191,1865.234,-0.38307,0.526724,-10.1993,9e-06,-0.00106,-0.00319,,,,,,
192,1875.0,-0.38307,0.526724,-10.2089,0.001075,-0.00213,-0.00319,,,,,,
193,1884.766,-0.38307,0.517148,-10.1993,0.001075,3e-06,-0.00213,,,,,,
194,1894.531,-0.39265,0.497994,-10.161,-0.00426,-0.00213,0.002136,,,,,,
195,1904.297,-0.39265,0.421379,-10.1897,-0.00319,-0.00426,0.018125,,,,,,
196,1914.063,-0.40223,0.430956,-10.2089,-0.00212,-0.00426,0.030916,,,,,,
197,1923.828,-0.45011,0.411803,-10.1897,-0.00106,-0.0032,0.03518,,,,,,
198,1933.594,-0.39265,0.593762,-10.1993,9e-06,-0.00213,0.045839,,,,,,
0,0.0,1.120486,10.08438,-2.77727,0.155623,0.051164,0.089537, R452,,,,,
1,9.765625,1.082179,10.03649,-2.71024,0.136437,0.011725,0.060757,,,,,,
2,19.53125,0.938527,10.14184,-2.71024,0.142832,-0.02558,0.081009,,,,,,
3,29.29688,0.670376,10.10353,-2.806,0.152425,-0.06289,0.082075,,,,,,
4,39.0625,0.814029,10.03649,-2.9305,0.1407,-0.0437,0.019186,,,,,,
5,48.82813,0.679953,9.940725,-2.87304,0.12258,-0.06076,0.036241,,,,,,
6,58.59375,0.699107,9.892841,-2.79643,0.078877,-0.13324,0.027714,,,,,,
7,68.35938,0.632069,9.883265,-2.83474,0.049032,-0.09806,-0.12791,,,,,,
8,78.125,0.641646,9.911995,-2.85389,0.008527,-0.0938,-0.26435,,,,,,
9,87.89063,0.756568,10.05565,-2.78685,-0.03944,-0.097,-0.31018,,,,,,
10,97.65625,0.632069,10.10353,-2.806,-0.06822,-0.08847,-0.29313,,,,,,
11,107.4219,0.68953,9.988609,-2.86347,-0.06822,-0.07035,-0.27074,,,,,,
12,117.1875,0.699107,10.25676,-2.99754,-0.08741,-0.01386,-0.30592,,,,,,
13,126.9531,0.584185,10.33337,-2.83474,-0.07355,0.029846,-0.17481,,,,,,
14,136.7188,0.967257,10.33337,-2.74854,0.020252,0.118316,-0.07248,,,,,,
15,146.4844,0.766145,10.31422,-2.71024,0.073548,0.103393,-0.03731,,,,,,
16,156.25,0.794875,10.12268,-2.71981,0.105525,0.043702,-0.00426,,,,,,
17,166.0156,0.699107,10.05565,-2.69108,0.125777,0.033043,0.034109,,,,,,
18,175.7813,0.708684,10.18015,-2.7677,0.130041,0.043702,0.100196,,,,,,
19,185.5469,0.823605,10.15142,-2.96881,0.165216,0.112987,0.16948,,,,,,
20,195.3125,0.890643,10.18015,-2.96881,0.148162,0.14603,0.198259,,,,,,
21,205.0781,0.967257,10.08438,-2.81558,0.137503,0.126843,0.172678,,,,,,
22,214.8438,1.158794,10.04607,-2.74854,0.112987,0.074614,0.1407,,,,,,
23,224.6094,1.11091,9.998186,-2.78685,0.082075,0.00533,0.069284,,,,,,
24,234.375,0.861913,9.787497,-2.79643,0.034109,-0.04797,-0.03518,,,,,,
25,244.1406,0.545878,9.883265,-2.79643,-0.04903,-0.02771,-0.02238,,,,,,
26,253.9063,0.68953,10.37168,-2.94966,-0.09167,0.07035,0.081009,,,,,,
27,263.6719,1.015141,10.37168,-3.02627,-0.02665,0.141766,0.175875,,,,,,
28,273.4375,1.158794,10.11311,-2.73897,0.009593,0.167348,0.305916,,,,,,
29,283.2031,1.417367,10.21845,-2.59532,-0.03944,0.148162,0.412508,,,,,,
30,292.9688,1.733402,10.11311,-2.49955,-0.13963,0.061823,0.38053,,,,,,
31,302.7344,1.838747,10.04607,-2.50912,-0.30379,0.022384,0.304851,,,,,,
32,312.5,1.532289,10.21845,-2.49955,-0.31338,0.014923,0.316576,,,,,,
33,322.2656,1.522712,10.40041,-2.62405,-0.29846,0.056493,0.431694,,,,,,
34,332.0313,1.723825,10.3238,-2.55701,-0.29846,0.056493,0.431694,,,,,,
35,341.7969,1.924938,10.24718,-2.48039,-0.35921,0.089537,0.607569,,,,,,
36,351.5625,1.580173,10.43872,-2.6432,-0.44129,0.176941,0.708831,,,,,,
37,361.3281,1.321599,10.57279,-2.7677,-0.10766,0.143898,0.480726,,,,,,
38,371.0938,1.493982,10.52491,-2.65278,0.402914,0.275005,0.396519,,,,,,
39,380.8594,1.80044,10.00776,-2.41336,0.686447,0.269675,0.435958,,,,,,
40,390.625,1.762132,9.80665,-2.20267,0.599042,0.107657,0.398651,,,,,,
41,400.3906,1.187524,9.730036,-2.37505,0.627822,0.045834,0.170546,,,,,,
42,410.1563,0.21069,9.730036,-2.70066,0.949727,0.223841,-0.12045,,,,,,
43,419.9219,0.632069,9.490615,-2.806,1.233259,0.440221,-0.10553,,,,,,
44,429.6875,0.105345,9.203311,-2.95923,1.28762,0.376267,-0.17588,,,,,,
45,439.4531,-0.54588,9.854534,-3.11246,1.26417,0.40931,-0.34216,,,,,,
46,449.2188,0.277727,9.682151,-2.806,1.315334,0.563867,-0.45408,,,,,,
47,458.9844,0.325611,9.758766,-2.99754,1.021143,0.834608,-0.35708,,,,,,
48,468.75,1.091756,9.931149,-3.38061,0.862322,0.861256,-0.15669,,,,,,
49,478.5156,1.810016,9.864111,-3.58173,0.752533,0.879377,-0.00853,,,,,,
50,488.2813,1.963245,9.835381,-3.62961,0.525494,0.868717,0.010659,,,,,,
51,498.0469,1.848324,9.797073,-3.82115,0.407178,0.772785,-0.02238,,,,,,
52,507.8125,2.193089,9.787497,-3.89776,0.651272,0.603306,-0.11299,,,,,,
53,517.5781,1.206678,9.816227,-3.76369,0.972111,0.627822,-0.17481,,,,,,
54,527.3438,1.120486,9.701304,-3.92649,0.847399,0.676853,-0.10872,,,,,,
55,537.1094,1.723825,9.701304,-3.97438,0.69604,0.540417,0.013857,,,,,,
56,546.875,2.001553,9.634267,-3.70622,0.558537,0.515901,0.083141,,,,,,
57,556.6406,2.231396,9.710881,-3.73496,0.331498,0.488187,0.154557,,,,,,
58,566.4063,2.221819,9.911995,-4.41491,0.240896,0.250489,0.277137,,,,,,
59,576.1719,2.001553,9.461884,-4.1276,0.250489,-0.0032,0.397585,,,,,,
60,585.9375,2.193089,9.490615,-3.77326,-0.06289,0.163084,0.599042,,,,,,
61,595.7031,2.03986,9.988609,-3.553,-0.52549,0.207853,0.723754,,,,,,
62,605.4688,0.938527,10.05565,-3.553,-0.78451,-0.03624,0.605437,,,,,,
63,615.2344,-0.05746,9.155427,-4.19464,0.170546,0.599042,0.394387,,,,,,
64,625.0,1.762132,9.35654,-3.21781,1.347311,0.603306,0.522296,,,,,,
65,634.7656,1.551443,9.289502,-2.87304,1.258841,0.00533,0.542549,,,,,,
66,644.5313,1.436521,8.954314,-3.48596,0.957188,0.009593,0.445551,,,,,,
67,654.2969,1.944092,8.916007,-3.97438,0.98277,0.115118,0.238764,,,,,,
68,664.0625,1.762132,8.772355,-3.53384,1.17037,0.079943,-0.00107,,,,,,
69,673.8281,2.011129,9.346963,-3.50511,1.252445,0.212116,-0.23557,,,,,,
70,683.5938,2.106897,9.203311,-4.18506,1.223666,0.344289,-0.38479,,,,,,
71,693.3594,2.030283,9.174581,-4.2521,1.223666,0.344289,-0.38479,,,,,,
72,703.125,1.944092,9.136273,-4.32872,1.234325,0.255819,-0.44022,,,,,,
73,712.8906,1.120486,9.337386,-4.57771,0.917749,0.570262,-0.31871,,,,,,
74,722.6563,1.723825,9.816227,-5.42047,-0.08634,0.755731,0.02878,,,,,,
75,732.4219,2.059013,9.509768,-5.88016,-1.05952,0.284598,0.14603,,,,,,
76,742.1875,2.394202,9.241618,-5.90889,-1.31747,-0.02985,0.084207,,,,,,
77,751.9531,2.355894,9.021352,-5.61201,-1.07444,-0.15989,0.057559,,,,,,
78,761.7188,2.221819,9.375693,-4.8746,-0.74294,-0.29099,0.037307,,,,,,
79,771.4844,2.097321,9.366117,-4.11803,-0.77065,-0.40291,-0.00959,,,,,,
80,781.25,1.781286,9.38527,-4.00311,-0.83781,-0.46474,-0.02345,,,,,,
81,791.0156,1.953668,9.682151,-3.553,-0.6598,-0.51697,0.056493,,,,,,
82,800.7813,2.06859,9.59596,-3.5913,-0.51057,-0.49991,0.212116,,,,,,
83,810.5469,1.675941,9.260772,-3.9648,-0.33363,-0.39972,0.266478,,,,,,
84,820.3125,1.752556,9.414001,-3.93607,-0.16522,-0.44662,0.244094,,,,,,
85,830.0781,2.154781,9.519345,-3.67749,-0.12898,-0.38373,0.23983,,,,,,
86,839.8438,1.857901,9.433154,-3.75411,-0.16202,-0.28566,0.237698,,,,,,
87,849.6094,1.810016,9.471461,-3.76369,-0.16841,-0.23876,0.270741,,,,,,
88,859.375,1.810016,9.576806,-3.83072,-0.18227,-0.21212,0.341092,,,,,,
89,869.1406,1.934515,9.567229,-3.97438,-0.19506,-0.17694,0.422101,,,,,,
90,878.9063,1.972822,9.394847,-3.80199,-0.24409,-0.17055,0.471133,,,,,,
91,888.6719,2.116474,9.327809,-3.69665,-0.29419,-0.12684,0.430628,,,,,,
92,898.4375,2.173935,9.433154,-3.78284,-0.27394,-0.0469,0.379464,,,,,,
93,908.2031,1.982399,9.35654,-3.95522,-0.26008,-0.09593,0.269675,,,,,,
94,917.9688,2.240973,9.643844,-3.82115,-0.26008,-0.1439,0.076746,,,,,,
95,927.7344,1.896208,9.691728,-3.79242,-0.31018,-0.14283,0.066086,,,,,,
96,937.5,1.37906,9.528922,-3.83072,-0.38799,-0.21212,0.063955,,,,,,
97,947.2656,1.886631,9.442731,-3.65834,-0.51803,-0.30059,0.094866,,,,,,
98,957.0313,2.882619,9.59596,-3.41892,-0.55001,-0.31338,0.094866,,,,,,
99,966.7969,2.978387,9.662997,-3.38061,-0.41677,-0.21425,0.060757,,,,,,
100,976.5625,2.566584,9.586383,-3.45723,-0.32084,-0.13857,0.014923,,,,,,
101,986.3281,2.442086,9.62469,-3.39019,-0.29846,-0.13111,0.010659,,,,,,
102,996.0938,2.470816,9.586383,-3.41892,-0.24729,-0.14603,0.01812,,,,,,
103,1005.859,2.413355,9.471461,-3.45723,-0.20039,-0.1439,0.017055,,,,,,
104,1015.625,2.317587,9.548076,-3.35188,-0.11299,-0.10979,0.020252,,,,,,
105,1025.391,2.30801,9.567229,-3.38061,-0.05223,-0.11086,0.027714,,,,,,
106,1035.156,2.164358,9.62469,-3.4668,-0.03731,-0.10659,0.062889,,,,,,
107,1044.922,2.126051,9.662997,-3.41892,-0.02345,-0.15669,0.078877,,,,,,
108,1054.688,2.27928,9.634267,-3.41892,-0.02345,-0.15669,0.078877,,,,,,
109,1064.453,2.422932,9.605536,-3.41892,-0.0437,-0.20466,0.078877,,,,,,
110,1074.219,2.154781,9.62469,-3.43807,-0.04477,-0.17588,0.055427,,,,,,
111,1083.984,2.25055,9.586383,-3.41892,-0.0533,-0.16841,0.050098,,,,,,
112,1093.75,2.126051,9.62469,-3.4285,-0.03731,-0.13963,0.043702,,,,,,
113,1103.516,2.212242,9.605536,-3.4668,-0.02558,-0.13004,0.030911,,,,,,
114,1113.281,2.202666,9.62469,-3.50511,-0.04264,-0.10979,0.02878,,,,,,
115,1123.047,2.240973,9.682151,-3.47638,-0.06289,-0.11938,0.013857,,,,,,
116,1132.813,2.298434,9.691728,-3.40934,-0.07675,-0.15136,0.004264,,,,,,
117,1142.578,2.298434,9.567229,-3.35188,-0.10446,-0.1908,0.042636,,,,,,
118,1152.344,2.269703,9.548076,-3.32315,-0.11938,-0.1908,0.051164,,,,,,
119,1162.109,2.126051,9.691728,-3.34231,-0.06289,-0.15989,0.050098,,,,,,
120,1171.875,2.240973,9.691728,-3.38061,-0.01919,-0.20146,0.063955,,,,,,
121,1181.641,2.413355,9.605536,-3.35188,-0.02878,-0.22917,0.069284,,,,,,
122,1191.406,2.547431,9.615113,-3.38061,-0.03198,-0.19719,0.061823,,,,,,
123,1201.172,2.5187,9.519345,-3.51469,0.010659,-0.10446,-0.00213,,,,,,
124,1210.938,2.5187,9.576806,-3.50511,0.013857,-0.00853,-0.05543,,,,,,
125,1220.703,2.365471,9.586383,-3.39977,0.004264,0.009593,-0.05756,,,,,,
126,1230.469,2.25055,9.59596,-3.32315,-0.01812,-0.02878,-0.03624,,,,,,
127,1240.234,2.193089,9.643844,-3.33273,-0.01599,-0.05436,-0.00959,,,,,,
128,1250.0,2.183512,9.65342,-3.32315,0.020252,-0.04797,-0.00213,,,,,,
129,1259.766,2.145205,9.65342,-3.304,0.053296,-0.03944,-0.00107,,,,,,
130,1269.531,2.212242,9.62469,-3.35188,0.091668,-0.02132,0.007461,,,,,,
131,1279.297,2.298434,9.634267,-3.40934,0.12258,-0.0064,0.0,,,,,,
132,1289.063,2.231396,9.62469,-3.47638,0.142832,0.007461,-0.01279,,,,,,
133,1298.828,2.126051,9.59596,-3.44765,0.128975,0.00533,-0.01279,,,,,,
134,1308.594,2.106897,9.615113,-3.44765,0.091668,-0.00746,-0.01066,,,,,,
135,1318.359,2.06859,9.62469,-3.44765,0.065021,-0.01706,-0.00853,,,,,,
136,1328.125,2.097321,9.59596,-3.4285,0.0469,-0.01706,-0.0064,,,,,,
137,1337.891,2.145205,9.59596,-3.39019,0.040505,-0.00107,-0.00746,,,,,,
138,1347.656,2.183512,9.615113,-3.39019,0.053296,0.011725,-0.00426,,,,,,
139,1357.422,2.164358,9.586383,-3.40934,0.053296,0.015989,-0.00533,,,,,,
140,1367.188,2.154781,9.615113,-3.4285,0.049032,0.022384,-0.00959,,,,,,
141,1376.953,2.154781,9.615113,-3.43807,0.056493,0.024516,-0.00959,,,,,,
142,1386.719,2.173935,9.615113,-3.4668,0.057559,0.026648,-0.01066,,,,,,
143,1396.484,2.212242,9.662997,-3.49553,0.043702,0.012791,-0.01066,,,,,,
144,1406.25,2.173935,9.615113,-3.48596,0.025582,-0.00426,-0.01066,,,,,,
145,1416.016,2.183512,9.62469,-3.4668,0.025582,-0.00426,-0.01066,,,,,,
146,1425.781,2.193089,9.634267,-3.45723,0.013857,-0.00533,-0.01066,,,,,,
147,1435.547,2.183512,9.59596,-3.44765,0.011725,-0.0064,-0.01386,,,,,,
148,1445.313,2.164358,9.605536,-3.44765,0.013857,-0.00746,-0.01599,,,,,,
149,1455.078,2.097321,9.586383,-3.44765,0.024516,0.008527,-0.01706,,,,,,
150,1464.844,2.106897,9.62469,-3.40934,0.019186,0.009593,-0.01386,,,,,,
151,1474.609,2.212242,9.634267,-3.44765,0.022384,0.0,-0.00959,,,,,,
152,1484.375,2.173935,9.634267,-3.44765,0.02878,0.002132,-0.01066,,,,,,
153,1494.141,2.145205,9.615113,-3.45723,0.025582,-0.00107,-0.00746,,,,,,
154,1503.906,2.231396,9.643844,-3.43807,0.024516,-0.0032,-0.00533,,,,,,
155,1513.672,2.183512,9.634267,-3.39977,0.030911,-0.01812,-0.0032,,,,,,
156,1523.438,2.116474,9.59596,-3.4285,0.0469,-0.01173,-0.00426,,,,,,
157,1533.203,2.154781,9.586383,-3.43807,0.060757,0.003198,-0.00746,,,,,,
158,1542.969,2.221819,9.643844,-3.4668,0.069284,0.012791,-0.00853,,,,,,
159,1552.734,2.183512,9.634267,-3.4668,0.058625,-0.00107,-0.0064,,,,,,
160,1562.5,2.221819,9.615113,-3.4285,0.0469,-0.01492,-0.0032,,,,,,
161,1572.266,2.231396,9.62469,-3.43807,0.057559,-0.0064,-0.0064,,,,,,
162,1582.031,2.240973,9.634267,-3.45723,0.082075,0.002132,-0.00853,,,,,,
163,1591.797,2.202666,9.605536,-3.4668,0.094866,0.003198,-0.00533,,,,,,
164,1601.563,2.154781,9.586383,-3.49553,0.102327,0.012791,-0.01173,,,,,,
165,1611.328,2.011129,9.586383,-3.51469,0.086339,0.009593,-0.01812,,,,,,
166,1621.094,2.097321,9.615113,-3.48596,0.054361,-0.00107,-0.00533,,,,,,
167,1630.859,2.221819,9.576806,-3.44765,0.039439,-0.01706,-0.00107,,,,,,
168,1640.625,2.164358,9.615113,-3.50511,0.044768,0.007461,-0.00853,,,,,,
169,1650.391,2.154781,9.62469,-3.44765,0.039439,-0.00107,-0.00853,,,,,,
170,1660.156,2.116474,9.59596,-3.49553,0.037307,0.003198,-0.01279,,,,,,
171,1669.922,2.106897,9.605536,-3.48596,0.027714,0.007461,-0.01706,,,,,,
172,1679.688,2.154781,9.59596,-3.4285,0.010659,-0.00107,-0.01279,,,,,,
173,1689.453,2.154781,9.62469,-3.47638,0.014923,-0.00213,-0.01173,,,,,,
174,1699.219,2.154781,9.62469,-3.50511,0.014923,-0.01279,-0.01173,,,,,,
175,1708.984,2.164358,9.615113,-3.4668,0.012791,-0.01492,-0.00746,,,,,,
176,1718.75,2.173935,9.586383,-3.47638,0.019186,-0.01173,-0.00426,,,,,,
177,1728.516,2.135628,9.615113,-3.43807,0.021318,-0.00746,-0.0064,,,,,,
178,1738.281,2.164358,9.605536,-3.45723,0.034109,-0.01066,-0.00107,,,,,,
179,1748.047,2.145205,9.576806,-3.47638,0.037307,-0.01173,0.002132,,,,,,
180,1757.813,2.145205,9.59596,-3.43807,0.035175,-0.0032,-0.00213,,,,,,
181,1767.578,2.135628,9.605536,-3.4668,0.043702,0.006395,-0.0032,,,,,,
182,1777.344,2.126051,9.605536,-3.50511,0.043702,0.006395,-0.0032,,,,,,
183,1787.109,2.135628,9.615113,-3.47638,0.033043,0.00533,-0.0032,,,,,,
184,1796.875,2.116474,9.605536,-3.45723,0.034109,-0.00533,0.00533,,,,,,
185,1806.641,2.106897,9.59596,-3.52427,0.033043,-0.00959,0.009593,,,,,,
186,1816.406,2.145205,9.59596,-3.50511,0.01812,-0.01279,0.007461,,,,,,
187,1826.172,2.145205,9.59596,-3.47638,0.008527,-0.01706,0.007461,,,,,,
188,1835.938,2.164358,9.605536,-3.44765,0.004264,-0.01706,0.009593,,,,,,
189,1845.703,2.154781,9.615113,-3.44765,0.014923,-0.01706,0.009593,,,,,,
190,1855.469,2.240973,9.615113,-3.47638,0.025582,-0.01599,0.008527,,,,,,
191,1865.234,2.135628,9.605536,-3.51469,0.027714,-0.01706,0.007461,,,,,,
192,1875.0,2.126051,9.59596,-3.47638,0.021318,-0.02132,0.006395,,,,,,
193,1884.766,2.183512,9.634267,-3.4668,0.01812,-0.02025,0.00533,,,,,,
194,1894.531,2.106897,9.615113,-3.48596,0.021318,-0.01599,0.003198,,,,,,
195,1904.297,2.078167,9.59596,-3.48596,0.012791,-0.01492,0.0,,,,,,
196,1914.063,2.078167,9.615113,-3.45723,-0.00533,-0.01599,0.004264,,,,,,
197,1923.828,2.126051,9.615113,-3.45723,-0.00959,-0.02771,0.013857,,,,,,
198,1933.594,2.126051,9.605536,-3.4668,-0.00533,-0.02238,0.012791,,,,,,
0,0.0,-0.35434,0.545878,-10.1897,0.014923,0.003198,0.00533, R454,,,,,
1,9.765625,-0.39265,0.545878,-10.1993,0.013857,0.002132,0.00533,,,,,,
2,19.53125,-0.38307,0.545878,-10.1897,0.013857,0.003198,0.003198,,,,,,
3,29.29688,-0.40223,0.565032,-10.1897,0.012791,0.003198,0.004264,,,,,,
4,39.0625,-0.38307,0.565032,-10.2185,0.015989,0.00533,0.00533,,,,,,
5,48.82813,-0.39265,0.565032,-10.1993,0.013857,0.00533,0.00533,,,,,,
6,58.59375,-0.39265,0.555455,-10.2185,0.014923,0.006395,0.004264,,,,,,
7,68.35938,-0.38307,0.555455,-10.2089,0.017055,0.006395,0.004264,,,,,,
8,78.125,-0.38307,0.584185,-10.1706,0.014923,0.004264,0.004264,,,,,,
9,87.89063,-0.4118,0.555455,-10.2089,0.01812,0.008527,0.00533,,,,,,
10,97.65625,-0.39265,0.545878,-10.2089,0.01812,0.008527,0.006395,,,,,,
11,107.4219,-0.40223,0.565032,-10.1993,0.01812,0.00533,0.006395,,,,,,
12,117.1875,-0.39265,0.536301,-10.2185,0.014923,0.00533,0.008527,,,,,,
13,126.9531,-0.39265,0.545878,-10.1993,0.014923,0.00533,0.006395,,,,,,
14,136.7188,-0.39265,0.555455,-10.2185,0.014923,0.00533,0.006395,,,,,,
15,146.4844,-0.42138,0.545878,-10.1801,0.015989,0.007461,0.007461,,,,,,
16,156.25,-0.38307,0.545878,-10.2089,0.015989,0.006395,0.009593,,,,,,
17,166.0156,-0.39265,0.555455,-10.2089,0.014923,0.00533,0.012791,,,,,,
18,175.7813,-0.38307,0.555455,-10.1993,0.015989,0.006395,0.011725,,,,,,
19,185.5469,-0.39265,0.565032,-10.1897,0.015989,0.006395,0.015989,,,,,,
20,195.3125,-0.3735,0.545878,-10.2185,0.013857,0.00533,0.014923,,,,,,
21,205.0781,-0.3735,0.526724,-10.1993,0.014923,0.006395,0.010659,,,,,,
22,214.8438,-0.40223,0.545878,-10.2185,0.014923,0.006395,0.010659,,,,,,
23,224.6094,-0.39265,0.545878,-10.2185,0.014923,0.003198,0.011725,,,,,,
24,234.375,-0.38307,0.536301,-10.1897,0.015989,0.004264,0.009593,,,,,,
25,244.1406,-0.38307,0.545878,-10.1706,0.015989,0.007461,0.009593,,,,,,
26,253.9063,-0.38307,0.536301,-10.1993,0.013857,0.00533,0.009593,,,,,,
27,263.6719,-0.3735,0.555455,-10.1993,0.014923,0.004264,0.006395,,,,,,
28,273.4375,-0.38307,0.555455,-10.1897,0.017055,0.004264,0.006395,,,,,,
29,283.2031,-0.39265,0.555455,-10.1993,0.014923,0.004264,0.007461,,,,,,
30,292.9688,-0.39265,0.555455,-10.2089,0.014923,0.00533,0.006395,,,,,,
31,302.7344,-0.39265,0.517148,-10.1897,0.013857,0.004264,0.007461,,,,,,
32,312.5,-0.39265,0.536301,-10.1897,0.014923,0.004264,0.007461,,,,,,
33,322.2656,-0.39265,0.555455,-10.2185,0.017055,0.00533,0.006395,,,,,,
34,332.0313,-0.40223,0.526724,-10.2089,0.015989,0.007461,0.008527,,,,,,
35,341.7969,-0.38307,0.536301,-10.1897,0.013857,0.00533,0.00533,,,,,,
36,351.5625,-0.36392,0.536301,-10.1706,0.014923,0.004264,0.007461,,,,,,
37,361.3281,-0.38307,0.565032,-10.2089,0.014923,0.004264,0.007461,,,,,,
38,371.0938,-0.40223,0.545878,-10.1897,0.014923,0.00533,0.009593,,,,,,
39,380.8594,-0.40223,0.545878,-10.2089,0.012791,0.004264,0.010659,,,,,,
40,390.625,-0.36392,0.545878,-10.1897,0.013857,0.004264,0.008527,,,,,,
41,400.3906,-0.40223,0.545878,-10.2185,0.014923,0.00533,0.007461,,,,,,
42,410.1563,-0.40223,0.545878,-10.1993,0.015989,0.004264,0.006395,,,,,,
43,419.9219,-0.38307,0.536301,-10.1801,0.017055,0.00533,0.006395,,,,,,
44,429.6875,-0.39265,0.555455,-10.2376,0.013857,0.004264,0.00533,,,,,,
45,439.4531,-0.38307,0.555455,-10.2376,0.014923,0.004264,0.006395,,,,,,
46,449.2188,-0.39265,0.565032,-10.2185,0.015989,0.004264,0.006395,,,,,,
47,458.9844,-0.44053,0.565032,-10.1993,0.015989,0.003198,0.008527,,,,,,
48,468.75,-0.36392,0.526724,-10.1993,0.015989,0.00533,0.010659,,,,,,
49,478.5156,-0.31604,0.507571,-10.1801,0.015989,0.004264,0.010659,,,,,,
